#
# Results on Sun, 27 Mar 2022 21:09:16 GMT
# USER AGENT: Mozilla/5.0 (Windows NT 10.0; Win64; x64) AppleWebKit/537.36 (KHTML, like Gecko) Chrome/99.0.4844.82 Safari/537.36
# Design number was non-random = 0
#
# Columns below this comment are as follows:
# 1. Results reception time.
# 2. MD5 hash of participant's IP address.
# 3. Controller name.
# 4. Order number of item.
# 5. Inner element number.
# 6. Label.
# 7. Latin Square Group.
# 8. PennElementType.
# 9. PennElementName.
# 10. Parameter.
# 11. Value.
# 12. EventTime.
# 13. id.
# 14. Comments.
1648415356,ea4822a528ee3bb453e635d65811542e,PennController,0,0,instructions_A,NULL,PennController,0,_Trial_,Start,1648413792079,UVA,NULL
1648415356,ea4822a528ee3bb453e635d65811542e,PennController,0,0,instructions_A,NULL,PennController,0,_Header_,Start,1648413792079,UVA,NULL
1648415356,ea4822a528ee3bb453e635d65811542e,PennController,0,0,instructions_A,NULL,PennController,0,_Header_,End,1648413792079,UVA,NULL
1648415356,ea4822a528ee3bb453e635d65811542e,PennController,0,0,instructions_A,NULL,PennController,0,_Trial_,End,1648413802749,UVA,NULL
1648415356,ea4822a528ee3bb453e635d65811542e,PennController,1,0,instructions_B,NULL,PennController,1,_Trial_,Start,1648413802751,UVA,NULL
1648415356,ea4822a528ee3bb453e635d65811542e,PennController,1,0,instructions_B,NULL,PennController,1,_Header_,Start,1648413802751,UVA,NULL
1648415356,ea4822a528ee3bb453e635d65811542e,PennController,1,0,instructions_B,NULL,PennController,1,_Header_,End,1648413802751,UVA,NULL
1648415356,ea4822a528ee3bb453e635d65811542e,PennController,1,0,instructions_B,NULL,PennController,1,_Trial_,End,1648413803981,UVA,NULL
1648415356,ea4822a528ee3bb453e635d65811542e,PennController,2,0,instructions_C,NULL,PennController,2,_Trial_,Start,1648413803982,UVA,NULL
1648415356,ea4822a528ee3bb453e635d65811542e,PennController,2,0,instructions_C,NULL,PennController,2,_Header_,Start,1648413803982,UVA,NULL
1648415356,ea4822a528ee3bb453e635d65811542e,PennController,2,0,instructions_C,NULL,PennController,2,_Header_,End,1648413803982,UVA,NULL
1648415356,ea4822a528ee3bb453e635d65811542e,PennController,2,0,instructions_C,NULL,PennController,2,_Trial_,End,1648413805193,UVA,NULL
1648415356,ea4822a528ee3bb453e635d65811542e,PennController,3,0,instructions_D,NULL,PennController,3,_Trial_,Start,1648413805194,UVA,NULL
1648415356,ea4822a528ee3bb453e635d65811542e,PennController,3,0,instructions_D,NULL,PennController,3,_Header_,Start,1648413805194,UVA,NULL
1648415356,ea4822a528ee3bb453e635d65811542e,PennController,3,0,instructions_D,NULL,PennController,3,_Header_,End,1648413805194,UVA,NULL
1648415356,ea4822a528ee3bb453e635d65811542e,PennController,3,0,instructions_D,NULL,PennController,3,_Trial_,End,1648413805785,UVA,NULL
1648415356,ea4822a528ee3bb453e635d65811542e,PennController,4,0,instructions_Extra,NULL,PennController,4,_Trial_,Start,1648413805786,UVA,NULL
1648415356,ea4822a528ee3bb453e635d65811542e,PennController,4,0,instructions_Extra,NULL,PennController,4,_Header_,Start,1648413805786,UVA,NULL
1648415356,ea4822a528ee3bb453e635d65811542e,PennController,4,0,instructions_Extra,NULL,PennController,4,_Header_,End,1648413805786,UVA,NULL
1648415356,ea4822a528ee3bb453e635d65811542e,PennController,4,0,instructions_Extra,NULL,PennController,4,_Trial_,End,1648413806928,UVA,NULL
1648415356,ea4822a528ee3bb453e635d65811542e,PennController,5,0,keyboard_warning,NULL,PennController,5,_Trial_,Start,1648413806929,UVA,NULL
1648415356,ea4822a528ee3bb453e635d65811542e,PennController,5,0,keyboard_warning,NULL,PennController,5,_Header_,Start,1648413806929,UVA,NULL
1648415356,ea4822a528ee3bb453e635d65811542e,PennController,5,0,keyboard_warning,NULL,PennController,5,_Header_,End,1648413806929,UVA,NULL
1648415356,ea4822a528ee3bb453e635d65811542e,PennController,5,0,keyboard_warning,NULL,PennController,5,_Trial_,End,1648413808434,UVA,NULL
1648415356,ea4822a528ee3bb453e635d65811542e,PennController,7,0,p_trial_1_no_cue_UP,NULL,PennController,14,_Trial_,Start,1648413808435,UVA,NULL
1648415356,ea4822a528ee3bb453e635d65811542e,PennController,7,0,p_trial_1_no_cue_UP,NULL,PennController,14,_Header_,Start,1648413808435,UVA,NULL
1648415356,ea4822a528ee3bb453e635d65811542e,PennController,7,0,p_trial_1_no_cue_UP,NULL,PennController,14,_Header_,End,1648413808435,UVA,NULL
1648415356,ea4822a528ee3bb453e635d65811542e,PennController,7,0,p_trial_1_no_cue_UP,NULL,PennController,14,_Trial_,End,1648413814440,UVA,NULL
1648415356,ea4822a528ee3bb453e635d65811542e,PennController,25,0,p_trial_4_spatial_cue_UP,NULL,PennController,32,_Trial_,Start,1648413814441,UVA,NULL
1648415356,ea4822a528ee3bb453e635d65811542e,PennController,25,0,p_trial_4_spatial_cue_UP,NULL,PennController,32,_Header_,Start,1648413814441,UVA,NULL
1648415356,ea4822a528ee3bb453e635d65811542e,PennController,25,0,p_trial_4_spatial_cue_UP,NULL,PennController,32,_Header_,End,1648413814441,UVA,NULL
1648415356,ea4822a528ee3bb453e635d65811542e,PennController,25,0,p_trial_4_spatial_cue_UP,NULL,PennController,32,_Trial_,End,1648413820446,UVA,NULL
1648415356,ea4822a528ee3bb453e635d65811542e,PennController,15,0,p_trial_2_center_cue_DOWN,NULL,PennController,22,_Trial_,Start,1648413820449,UVA,NULL
1648415356,ea4822a528ee3bb453e635d65811542e,PennController,15,0,p_trial_2_center_cue_DOWN,NULL,PennController,22,_Header_,Start,1648413820449,UVA,NULL
1648415356,ea4822a528ee3bb453e635d65811542e,PennController,15,0,p_trial_2_center_cue_DOWN,NULL,PennController,22,_Header_,End,1648413820449,UVA,NULL
1648415356,ea4822a528ee3bb453e635d65811542e,PennController,15,0,p_trial_2_center_cue_DOWN,NULL,PennController,22,_Trial_,End,1648413826452,UVA,NULL
1648415356,ea4822a528ee3bb453e635d65811542e,PennController,11,0,p_trial_1_no_cue_DOWN,NULL,PennController,18,_Trial_,Start,1648413826455,UVA,NULL
1648415356,ea4822a528ee3bb453e635d65811542e,PennController,11,0,p_trial_1_no_cue_DOWN,NULL,PennController,18,_Header_,Start,1648413826455,UVA,NULL
1648415356,ea4822a528ee3bb453e635d65811542e,PennController,11,0,p_trial_1_no_cue_DOWN,NULL,PennController,18,_Header_,End,1648413826455,UVA,NULL
1648415356,ea4822a528ee3bb453e635d65811542e,PennController,11,0,p_trial_1_no_cue_DOWN,NULL,PennController,18,_Trial_,End,1648413832458,UVA,NULL
1648415356,ea4822a528ee3bb453e635d65811542e,PennController,23,0,p_trial_3_double_cue_DOWN,NULL,PennController,30,_Trial_,Start,1648413832461,UVA,NULL
1648415356,ea4822a528ee3bb453e635d65811542e,PennController,23,0,p_trial_3_double_cue_DOWN,NULL,PennController,30,_Header_,Start,1648413832461,UVA,NULL
1648415356,ea4822a528ee3bb453e635d65811542e,PennController,23,0,p_trial_3_double_cue_DOWN,NULL,PennController,30,_Header_,End,1648413832461,UVA,NULL
1648415356,ea4822a528ee3bb453e635d65811542e,PennController,23,0,p_trial_3_double_cue_DOWN,NULL,PennController,30,_Trial_,End,1648413838465,UVA,NULL
1648415356,ea4822a528ee3bb453e635d65811542e,PennController,19,0,p_trial_3_double_cue_UP,NULL,PennController,26,_Trial_,Start,1648413838467,UVA,NULL
1648415356,ea4822a528ee3bb453e635d65811542e,PennController,19,0,p_trial_3_double_cue_UP,NULL,PennController,26,_Header_,Start,1648413838467,UVA,NULL
1648415356,ea4822a528ee3bb453e635d65811542e,PennController,19,0,p_trial_3_double_cue_UP,NULL,PennController,26,_Header_,End,1648413838468,UVA,NULL
1648415356,ea4822a528ee3bb453e635d65811542e,PennController,19,0,p_trial_3_double_cue_UP,NULL,PennController,26,_Trial_,End,1648413844472,UVA,NULL
1648415356,ea4822a528ee3bb453e635d65811542e,PennController,13,0,p_trial_2_center_cue_UP,NULL,PennController,20,_Trial_,Start,1648413844474,UVA,NULL
1648415356,ea4822a528ee3bb453e635d65811542e,PennController,13,0,p_trial_2_center_cue_UP,NULL,PennController,20,_Header_,Start,1648413844474,UVA,NULL
1648415356,ea4822a528ee3bb453e635d65811542e,PennController,13,0,p_trial_2_center_cue_UP,NULL,PennController,20,_Header_,End,1648413844474,UVA,NULL
1648415356,ea4822a528ee3bb453e635d65811542e,PennController,13,0,p_trial_2_center_cue_UP,NULL,PennController,20,_Trial_,End,1648413850477,UVA,NULL
1648415356,ea4822a528ee3bb453e635d65811542e,PennController,27,0,p_trial_4_spatial_cue_DOWN,NULL,PennController,34,_Trial_,Start,1648413850478,UVA,NULL
1648415356,ea4822a528ee3bb453e635d65811542e,PennController,27,0,p_trial_4_spatial_cue_DOWN,NULL,PennController,34,_Header_,Start,1648413850478,UVA,NULL
1648415356,ea4822a528ee3bb453e635d65811542e,PennController,27,0,p_trial_4_spatial_cue_DOWN,NULL,PennController,34,_Header_,End,1648413850479,UVA,NULL
1648415356,ea4822a528ee3bb453e635d65811542e,PennController,27,0,p_trial_4_spatial_cue_DOWN,NULL,PennController,34,_Trial_,End,1648413856480,UVA,NULL
1648415356,ea4822a528ee3bb453e635d65811542e,PennController,6,0,p_trial_1_no_cue_UP,NULL,PennController,13,_Trial_,Start,1648413856481,UVA,NULL
1648415356,ea4822a528ee3bb453e635d65811542e,PennController,6,0,p_trial_1_no_cue_UP,NULL,PennController,13,_Header_,Start,1648413856481,UVA,NULL
1648415356,ea4822a528ee3bb453e635d65811542e,PennController,6,0,p_trial_1_no_cue_UP,NULL,PennController,13,_Header_,End,1648413856481,UVA,NULL
1648415356,ea4822a528ee3bb453e635d65811542e,PennController,6,0,p_trial_1_no_cue_UP,NULL,PennController,13,_Trial_,End,1648413862483,UVA,NULL
1648415356,ea4822a528ee3bb453e635d65811542e,PennController,24,0,p_trial_4_spatial_cue_UP,NULL,PennController,31,_Trial_,Start,1648413862486,UVA,NULL
1648415356,ea4822a528ee3bb453e635d65811542e,PennController,24,0,p_trial_4_spatial_cue_UP,NULL,PennController,31,_Header_,Start,1648413862486,UVA,NULL
1648415356,ea4822a528ee3bb453e635d65811542e,PennController,24,0,p_trial_4_spatial_cue_UP,NULL,PennController,31,_Header_,End,1648413862486,UVA,NULL
1648415356,ea4822a528ee3bb453e635d65811542e,PennController,24,0,p_trial_4_spatial_cue_UP,NULL,PennController,31,_Trial_,End,1648413868490,UVA,NULL
1648415356,ea4822a528ee3bb453e635d65811542e,PennController,16,0,p_trial_2_center_cue_DOWN,NULL,PennController,23,_Trial_,Start,1648413868492,UVA,NULL
1648415356,ea4822a528ee3bb453e635d65811542e,PennController,16,0,p_trial_2_center_cue_DOWN,NULL,PennController,23,_Header_,Start,1648413868492,UVA,NULL
1648415356,ea4822a528ee3bb453e635d65811542e,PennController,16,0,p_trial_2_center_cue_DOWN,NULL,PennController,23,_Header_,End,1648413868492,UVA,NULL
1648415356,ea4822a528ee3bb453e635d65811542e,PennController,16,0,p_trial_2_center_cue_DOWN,NULL,PennController,23,_Trial_,End,1648413874494,UVA,NULL
1648415356,ea4822a528ee3bb453e635d65811542e,PennController,9,0,p_trial_1_no_cue_DOWN,NULL,PennController,16,_Trial_,Start,1648413874496,UVA,NULL
1648415356,ea4822a528ee3bb453e635d65811542e,PennController,9,0,p_trial_1_no_cue_DOWN,NULL,PennController,16,_Header_,Start,1648413874496,UVA,NULL
1648415356,ea4822a528ee3bb453e635d65811542e,PennController,9,0,p_trial_1_no_cue_DOWN,NULL,PennController,16,_Header_,End,1648413874497,UVA,NULL
1648415356,ea4822a528ee3bb453e635d65811542e,PennController,9,0,p_trial_1_no_cue_DOWN,NULL,PennController,16,_Trial_,End,1648413880501,UVA,NULL
1648415356,ea4822a528ee3bb453e635d65811542e,PennController,22,0,p_trial_3_double_cue_DOWN,NULL,PennController,29,_Trial_,Start,1648413880504,UVA,NULL
1648415356,ea4822a528ee3bb453e635d65811542e,PennController,22,0,p_trial_3_double_cue_DOWN,NULL,PennController,29,_Header_,Start,1648413880504,UVA,NULL
1648415356,ea4822a528ee3bb453e635d65811542e,PennController,22,0,p_trial_3_double_cue_DOWN,NULL,PennController,29,_Header_,End,1648413880504,UVA,NULL
1648415356,ea4822a528ee3bb453e635d65811542e,PennController,22,0,p_trial_3_double_cue_DOWN,NULL,PennController,29,_Trial_,End,1648413886507,UVA,NULL
1648415356,ea4822a528ee3bb453e635d65811542e,PennController,20,0,p_trial_3_double_cue_UP,NULL,PennController,27,_Trial_,Start,1648413886509,UVA,NULL
1648415356,ea4822a528ee3bb453e635d65811542e,PennController,20,0,p_trial_3_double_cue_UP,NULL,PennController,27,_Header_,Start,1648413886509,UVA,NULL
1648415356,ea4822a528ee3bb453e635d65811542e,PennController,20,0,p_trial_3_double_cue_UP,NULL,PennController,27,_Header_,End,1648413886509,UVA,NULL
1648415356,ea4822a528ee3bb453e635d65811542e,PennController,20,0,p_trial_3_double_cue_UP,NULL,PennController,27,_Trial_,End,1648413892513,UVA,NULL
1648415356,ea4822a528ee3bb453e635d65811542e,PennController,12,0,p_trial_2_center_cue_UP,NULL,PennController,19,_Trial_,Start,1648413892515,UVA,NULL
1648415356,ea4822a528ee3bb453e635d65811542e,PennController,12,0,p_trial_2_center_cue_UP,NULL,PennController,19,_Header_,Start,1648413892515,UVA,NULL
1648415356,ea4822a528ee3bb453e635d65811542e,PennController,12,0,p_trial_2_center_cue_UP,NULL,PennController,19,_Header_,End,1648413892515,UVA,NULL
1648415356,ea4822a528ee3bb453e635d65811542e,PennController,12,0,p_trial_2_center_cue_UP,NULL,PennController,19,_Trial_,End,1648413898520,UVA,NULL
1648415356,ea4822a528ee3bb453e635d65811542e,PennController,29,0,p_trial_4_spatial_cue_DOWN,NULL,PennController,36,_Trial_,Start,1648413898522,UVA,NULL
1648415356,ea4822a528ee3bb453e635d65811542e,PennController,29,0,p_trial_4_spatial_cue_DOWN,NULL,PennController,36,_Header_,Start,1648413898522,UVA,NULL
1648415356,ea4822a528ee3bb453e635d65811542e,PennController,29,0,p_trial_4_spatial_cue_DOWN,NULL,PennController,36,_Header_,End,1648413898522,UVA,NULL
1648415356,ea4822a528ee3bb453e635d65811542e,PennController,29,0,p_trial_4_spatial_cue_DOWN,NULL,PennController,36,_Trial_,End,1648413904525,UVA,NULL
1648415356,ea4822a528ee3bb453e635d65811542e,PennController,8,0,p_trial_1_no_cue_UP,NULL,PennController,15,_Trial_,Start,1648413904527,UVA,NULL
1648415356,ea4822a528ee3bb453e635d65811542e,PennController,8,0,p_trial_1_no_cue_UP,NULL,PennController,15,_Header_,Start,1648413904527,UVA,NULL
1648415356,ea4822a528ee3bb453e635d65811542e,PennController,8,0,p_trial_1_no_cue_UP,NULL,PennController,15,_Header_,End,1648413904527,UVA,NULL
1648415356,ea4822a528ee3bb453e635d65811542e,PennController,8,0,p_trial_1_no_cue_UP,NULL,PennController,15,_Trial_,End,1648413910531,UVA,NULL
1648415356,ea4822a528ee3bb453e635d65811542e,PennController,26,0,p_trial_4_spatial_cue_UP,NULL,PennController,33,_Trial_,Start,1648413910533,UVA,NULL
1648415356,ea4822a528ee3bb453e635d65811542e,PennController,26,0,p_trial_4_spatial_cue_UP,NULL,PennController,33,_Header_,Start,1648413910533,UVA,NULL
1648415356,ea4822a528ee3bb453e635d65811542e,PennController,26,0,p_trial_4_spatial_cue_UP,NULL,PennController,33,_Header_,End,1648413910533,UVA,NULL
1648415356,ea4822a528ee3bb453e635d65811542e,PennController,26,0,p_trial_4_spatial_cue_UP,NULL,PennController,33,_Trial_,End,1648413916537,UVA,NULL
1648415356,ea4822a528ee3bb453e635d65811542e,PennController,17,0,p_trial_2_center_cue_DOWN,NULL,PennController,24,_Trial_,Start,1648413916538,UVA,NULL
1648415356,ea4822a528ee3bb453e635d65811542e,PennController,17,0,p_trial_2_center_cue_DOWN,NULL,PennController,24,_Header_,Start,1648413916538,UVA,NULL
1648415356,ea4822a528ee3bb453e635d65811542e,PennController,17,0,p_trial_2_center_cue_DOWN,NULL,PennController,24,_Header_,End,1648413916538,UVA,NULL
1648415356,ea4822a528ee3bb453e635d65811542e,PennController,17,0,p_trial_2_center_cue_DOWN,NULL,PennController,24,_Trial_,End,1648413922539,UVA,NULL
1648415356,ea4822a528ee3bb453e635d65811542e,PennController,10,0,p_trial_1_no_cue_DOWN,NULL,PennController,17,_Trial_,Start,1648413922541,UVA,NULL
1648415356,ea4822a528ee3bb453e635d65811542e,PennController,10,0,p_trial_1_no_cue_DOWN,NULL,PennController,17,_Header_,Start,1648413922541,UVA,NULL
1648415356,ea4822a528ee3bb453e635d65811542e,PennController,10,0,p_trial_1_no_cue_DOWN,NULL,PennController,17,_Header_,End,1648413922541,UVA,NULL
1648415356,ea4822a528ee3bb453e635d65811542e,PennController,10,0,p_trial_1_no_cue_DOWN,NULL,PennController,17,_Trial_,End,1648413928545,UVA,NULL
1648415356,ea4822a528ee3bb453e635d65811542e,PennController,21,0,p_trial_3_double_cue_DOWN,NULL,PennController,28,_Trial_,Start,1648413928547,UVA,NULL
1648415356,ea4822a528ee3bb453e635d65811542e,PennController,21,0,p_trial_3_double_cue_DOWN,NULL,PennController,28,_Header_,Start,1648413928547,UVA,NULL
1648415356,ea4822a528ee3bb453e635d65811542e,PennController,21,0,p_trial_3_double_cue_DOWN,NULL,PennController,28,_Header_,End,1648413928547,UVA,NULL
1648415356,ea4822a528ee3bb453e635d65811542e,PennController,21,0,p_trial_3_double_cue_DOWN,NULL,PennController,28,_Trial_,End,1648413934552,UVA,NULL
1648415356,ea4822a528ee3bb453e635d65811542e,PennController,18,0,p_trial_3_double_cue_UP,NULL,PennController,25,_Trial_,Start,1648413934554,UVA,NULL
1648415356,ea4822a528ee3bb453e635d65811542e,PennController,18,0,p_trial_3_double_cue_UP,NULL,PennController,25,_Header_,Start,1648413934554,UVA,NULL
1648415356,ea4822a528ee3bb453e635d65811542e,PennController,18,0,p_trial_3_double_cue_UP,NULL,PennController,25,_Header_,End,1648413934554,UVA,NULL
1648415356,ea4822a528ee3bb453e635d65811542e,PennController,18,0,p_trial_3_double_cue_UP,NULL,PennController,25,_Trial_,End,1648413940558,UVA,NULL
1648415356,ea4822a528ee3bb453e635d65811542e,PennController,14,0,p_trial_2_center_cue_UP,NULL,PennController,21,_Trial_,Start,1648413940560,UVA,NULL
1648415356,ea4822a528ee3bb453e635d65811542e,PennController,14,0,p_trial_2_center_cue_UP,NULL,PennController,21,_Header_,Start,1648413940560,UVA,NULL
1648415356,ea4822a528ee3bb453e635d65811542e,PennController,14,0,p_trial_2_center_cue_UP,NULL,PennController,21,_Header_,End,1648413940560,UVA,NULL
1648415356,ea4822a528ee3bb453e635d65811542e,PennController,14,0,p_trial_2_center_cue_UP,NULL,PennController,21,_Trial_,End,1648413946564,UVA,NULL
1648415356,ea4822a528ee3bb453e635d65811542e,PennController,28,0,p_trial_4_spatial_cue_DOWN,NULL,PennController,35,_Trial_,Start,1648413946565,UVA,NULL
1648415356,ea4822a528ee3bb453e635d65811542e,PennController,28,0,p_trial_4_spatial_cue_DOWN,NULL,PennController,35,_Header_,Start,1648413946565,UVA,NULL
1648415356,ea4822a528ee3bb453e635d65811542e,PennController,28,0,p_trial_4_spatial_cue_DOWN,NULL,PennController,35,_Header_,End,1648413946565,UVA,NULL
1648415356,ea4822a528ee3bb453e635d65811542e,PennController,28,0,p_trial_4_spatial_cue_DOWN,NULL,PennController,35,_Trial_,End,1648413952571,UVA,NULL
1648415356,ea4822a528ee3bb453e635d65811542e,PennController,30,0,feedback-trial,NULL,PennController,6,_Trial_,Start,1648413952573,UVA,NULL
1648415356,ea4822a528ee3bb453e635d65811542e,PennController,30,0,feedback-trial,NULL,PennController,6,_Header_,Start,1648413952573,UVA,NULL
1648415356,ea4822a528ee3bb453e635d65811542e,PennController,30,0,feedback-trial,NULL,PennController,6,_Header_,End,1648413952573,UVA,NULL
1648415356,ea4822a528ee3bb453e635d65811542e,PennController,30,0,feedback-trial,NULL,PennController,6,_Trial_,End,1648414108967,UVA,NULL
1648415356,ea4822a528ee3bb453e635d65811542e,PennController,31,0,instructions_E,NULL,PennController,7,_Trial_,Start,1648414108968,UVA,NULL
1648415356,ea4822a528ee3bb453e635d65811542e,PennController,31,0,instructions_E,NULL,PennController,7,_Header_,Start,1648414108968,UVA,NULL
1648415356,ea4822a528ee3bb453e635d65811542e,PennController,31,0,instructions_E,NULL,PennController,7,_Header_,End,1648414108968,UVA,NULL
1648415356,ea4822a528ee3bb453e635d65811542e,PennController,31,0,instructions_E,NULL,PennController,7,_Trial_,End,1648414110436,UVA,NULL
1648415356,ea4822a528ee3bb453e635d65811542e,PennController,32,0,keyboard_warning_short,NULL,PennController,8,_Trial_,Start,1648414110437,UVA,NULL
1648415356,ea4822a528ee3bb453e635d65811542e,PennController,32,0,keyboard_warning_short,NULL,PennController,8,_Header_,Start,1648414110437,UVA,NULL
1648415356,ea4822a528ee3bb453e635d65811542e,PennController,32,0,keyboard_warning_short,NULL,PennController,8,_Header_,End,1648414110437,UVA,NULL
1648415356,ea4822a528ee3bb453e635d65811542e,PennController,32,0,keyboard_warning_short,NULL,PennController,8,_Trial_,End,1648414111940,UVA,NULL
# 14. imagens.
# 15. item.
# 16. ReactionTime.
# 17. Comments.
1648415356,ea4822a528ee3bb453e635d65811542e,PennController,75,0,trial_4_spatial_cue_DOWN,NULL,PennController,79,_Trial_,Start,1648414111941,UVA,cong-right.png,1,269,NULL
1648415356,ea4822a528ee3bb453e635d65811542e,PennController,75,0,trial_4_spatial_cue_DOWN,NULL,PennController,79,_Header_,Start,1648414111942,UVA,cong-right.png,1,269,NULL
1648415356,ea4822a528ee3bb453e635d65811542e,PennController,75,0,trial_4_spatial_cue_DOWN,NULL,PennController,79,_Header_,End,1648414111942,UVA,cong-right.png,1,269,NULL
1648415356,ea4822a528ee3bb453e635d65811542e,PennController,75,0,trial_4_spatial_cue_DOWN,NULL,Canvas,center,Print,NA,1648414113051,UVA,cong-right.png,1,269,NULL
1648415356,ea4822a528ee3bb453e635d65811542e,PennController,75,0,trial_4_spatial_cue_DOWN,NULL,Key,keypress1,PressedKey,K,1648414113322,UVA,cong-right.png,1,269,NULL
1648415356,ea4822a528ee3bb453e635d65811542e,PennController,75,0,trial_4_spatial_cue_DOWN,NULL,PennController,79,_Trial_,End,1648414115945,UVA,cong-right.png,1,269,NULL
1648415356,ea4822a528ee3bb453e635d65811542e,PennController,38,0,trial_1_no_cue_UP,NULL,PennController,42,_Trial_,Start,1648414115947,UVA,neutral-left.png,6,367,NULL
1648415356,ea4822a528ee3bb453e635d65811542e,PennController,38,0,trial_1_no_cue_UP,NULL,PennController,42,_Header_,Start,1648414115947,UVA,neutral-left.png,6,367,NULL
1648415356,ea4822a528ee3bb453e635d65811542e,PennController,38,0,trial_1_no_cue_UP,NULL,PennController,42,_Header_,End,1648414115947,UVA,neutral-left.png,6,367,NULL
1648415356,ea4822a528ee3bb453e635d65811542e,PennController,38,0,trial_1_no_cue_UP,NULL,Canvas,center,Print,NA,1648414117092,UVA,neutral-left.png,6,367,NULL
1648415356,ea4822a528ee3bb453e635d65811542e,PennController,38,0,trial_1_no_cue_UP,NULL,Key,keypress1,PressedKey,S,1648414117460,UVA,neutral-left.png,6,367,NULL
1648415356,ea4822a528ee3bb453e635d65811542e,PennController,38,0,trial_1_no_cue_UP,NULL,PennController,42,_Trial_,End,1648414119967,UVA,neutral-left.png,6,367,NULL
1648415356,ea4822a528ee3bb453e635d65811542e,PennController,75,0,trial_4_spatial_cue_DOWN,NULL,PennController,79,_Trial_,Start,1648414119969,UVA,cong-right.png,1,1700,NULL
1648415356,ea4822a528ee3bb453e635d65811542e,PennController,75,0,trial_4_spatial_cue_DOWN,NULL,PennController,79,_Header_,Start,1648414119969,UVA,cong-right.png,1,1700,NULL
1648415356,ea4822a528ee3bb453e635d65811542e,PennController,75,0,trial_4_spatial_cue_DOWN,NULL,PennController,79,_Header_,End,1648414119969,UVA,cong-right.png,1,1700,NULL
1648415356,ea4822a528ee3bb453e635d65811542e,PennController,75,0,trial_4_spatial_cue_DOWN,NULL,Canvas,center,Print,NA,1648414121086,UVA,cong-right.png,1,1700,NULL
1648415356,ea4822a528ee3bb453e635d65811542e,PennController,75,0,trial_4_spatial_cue_DOWN,NULL,Key,keypress1,Key,NA,Never,UVA,cong-right.png,1,1700,NULL
1648415356,ea4822a528ee3bb453e635d65811542e,PennController,75,0,trial_4_spatial_cue_DOWN,NULL,PennController,79,_Trial_,End,1648414123974,UVA,cong-right.png,1,1700,NULL
1648415356,ea4822a528ee3bb453e635d65811542e,PennController,47,0,trial_2_center_cue_UP,NULL,PennController,51,_Trial_,Start,1648414123976,UVA,neutral-right.png,3,1698,NULL
1648415356,ea4822a528ee3bb453e635d65811542e,PennController,47,0,trial_2_center_cue_UP,NULL,PennController,51,_Header_,Start,1648414123976,UVA,neutral-right.png,3,1698,NULL
1648415356,ea4822a528ee3bb453e635d65811542e,PennController,47,0,trial_2_center_cue_UP,NULL,PennController,51,_Header_,End,1648414123976,UVA,neutral-right.png,3,1698,NULL
1648415356,ea4822a528ee3bb453e635d65811542e,PennController,47,0,trial_2_center_cue_UP,NULL,Canvas,center,Print,NA,1648414125058,UVA,neutral-right.png,3,1698,NULL
1648415356,ea4822a528ee3bb453e635d65811542e,PennController,47,0,trial_2_center_cue_UP,NULL,Key,keypress1,Key,NA,Never,UVA,neutral-right.png,3,1698,NULL
1648415356,ea4822a528ee3bb453e635d65811542e,PennController,47,0,trial_2_center_cue_UP,NULL,PennController,51,_Trial_,End,1648414127978,UVA,neutral-right.png,3,1698,NULL
1648415356,ea4822a528ee3bb453e635d65811542e,PennController,54,0,trial_2_center_cue_DOWN,NULL,PennController,58,_Trial_,Start,1648414127980,UVA,cong-left.png,4,1697,NULL
1648415356,ea4822a528ee3bb453e635d65811542e,PennController,54,0,trial_2_center_cue_DOWN,NULL,PennController,58,_Header_,Start,1648414127980,UVA,cong-left.png,4,1697,NULL
1648415356,ea4822a528ee3bb453e635d65811542e,PennController,54,0,trial_2_center_cue_DOWN,NULL,PennController,58,_Header_,End,1648414127980,UVA,cong-left.png,4,1697,NULL
1648415356,ea4822a528ee3bb453e635d65811542e,PennController,54,0,trial_2_center_cue_DOWN,NULL,Canvas,center,Print,NA,1648414129094,UVA,cong-left.png,4,1697,NULL
1648415356,ea4822a528ee3bb453e635d65811542e,PennController,54,0,trial_2_center_cue_DOWN,NULL,Key,keypress1,Key,NA,Never,UVA,cong-left.png,4,1697,NULL
1648415356,ea4822a528ee3bb453e635d65811542e,PennController,54,0,trial_2_center_cue_DOWN,NULL,PennController,58,_Trial_,End,1648414131982,UVA,cong-left.png,4,1697,NULL
1648415356,ea4822a528ee3bb453e635d65811542e,PennController,59,0,trial_3_double_cue_UP,NULL,PennController,63,_Trial_,Start,1648414131984,UVA,neutral-right.png,3,1697,NULL
1648415356,ea4822a528ee3bb453e635d65811542e,PennController,59,0,trial_3_double_cue_UP,NULL,PennController,63,_Header_,Start,1648414131984,UVA,neutral-right.png,3,1697,NULL
1648415356,ea4822a528ee3bb453e635d65811542e,PennController,59,0,trial_3_double_cue_UP,NULL,PennController,63,_Header_,End,1648414131984,UVA,neutral-right.png,3,1697,NULL
1648415356,ea4822a528ee3bb453e635d65811542e,PennController,59,0,trial_3_double_cue_UP,NULL,Canvas,center,Print,NA,1648414132920,UVA,neutral-right.png,3,1697,NULL
1648415356,ea4822a528ee3bb453e635d65811542e,PennController,59,0,trial_3_double_cue_UP,NULL,Key,keypress1,Key,NA,Never,UVA,neutral-right.png,3,1697,NULL
1648415356,ea4822a528ee3bb453e635d65811542e,PennController,59,0,trial_3_double_cue_UP,NULL,PennController,63,_Trial_,End,1648414135990,UVA,neutral-right.png,3,1697,NULL
1648415356,ea4822a528ee3bb453e635d65811542e,PennController,54,0,trial_2_center_cue_DOWN,NULL,PennController,58,_Trial_,Start,1648414135992,UVA,cong-left.png,4,1696,NULL
1648415356,ea4822a528ee3bb453e635d65811542e,PennController,54,0,trial_2_center_cue_DOWN,NULL,PennController,58,_Header_,Start,1648414135993,UVA,cong-left.png,4,1696,NULL
1648415356,ea4822a528ee3bb453e635d65811542e,PennController,54,0,trial_2_center_cue_DOWN,NULL,PennController,58,_Header_,End,1648414135993,UVA,cong-left.png,4,1696,NULL
1648415356,ea4822a528ee3bb453e635d65811542e,PennController,54,0,trial_2_center_cue_DOWN,NULL,Canvas,center,Print,NA,1648414137106,UVA,cong-left.png,4,1696,NULL
1648415356,ea4822a528ee3bb453e635d65811542e,PennController,54,0,trial_2_center_cue_DOWN,NULL,Key,keypress1,Key,NA,Never,UVA,cong-left.png,4,1696,NULL
1648415356,ea4822a528ee3bb453e635d65811542e,PennController,54,0,trial_2_center_cue_DOWN,NULL,PennController,58,_Trial_,End,1648414139997,UVA,cong-left.png,4,1696,NULL
1648415356,ea4822a528ee3bb453e635d65811542e,PennController,61,0,trial_3_double_cue_UP,NULL,PennController,65,_Trial_,Start,1648414139999,UVA,incong-left.png,5,393,NULL
1648415356,ea4822a528ee3bb453e635d65811542e,PennController,61,0,trial_3_double_cue_UP,NULL,PennController,65,_Header_,Start,1648414139999,UVA,incong-left.png,5,393,NULL
1648415356,ea4822a528ee3bb453e635d65811542e,PennController,61,0,trial_3_double_cue_UP,NULL,PennController,65,_Header_,End,1648414139999,UVA,incong-left.png,5,393,NULL
1648415356,ea4822a528ee3bb453e635d65811542e,PennController,61,0,trial_3_double_cue_UP,NULL,Canvas,center,Print,NA,1648414141599,UVA,incong-left.png,5,393,NULL
1648415356,ea4822a528ee3bb453e635d65811542e,PennController,61,0,trial_3_double_cue_UP,NULL,Key,keypress1,PressedKey,S,1648414141993,UVA,incong-left.png,5,393,NULL
1648415356,ea4822a528ee3bb453e635d65811542e,PennController,61,0,trial_3_double_cue_UP,NULL,PennController,65,_Trial_,End,1648414144001,UVA,incong-left.png,5,393,NULL
1648415356,ea4822a528ee3bb453e635d65811542e,PennController,41,0,trial_1_no_cue_DOWN,NULL,PennController,45,_Trial_,Start,1648414144003,UVA,neutral-right.png,3,1697,NULL
1648415356,ea4822a528ee3bb453e635d65811542e,PennController,41,0,trial_1_no_cue_DOWN,NULL,PennController,45,_Header_,Start,1648414144003,UVA,neutral-right.png,3,1697,NULL
1648415356,ea4822a528ee3bb453e635d65811542e,PennController,41,0,trial_1_no_cue_DOWN,NULL,PennController,45,_Header_,End,1648414144003,UVA,neutral-right.png,3,1697,NULL
1648415356,ea4822a528ee3bb453e635d65811542e,PennController,41,0,trial_1_no_cue_DOWN,NULL,Canvas,center,Print,NA,1648414145857,UVA,neutral-right.png,3,1697,NULL
1648415356,ea4822a528ee3bb453e635d65811542e,PennController,41,0,trial_1_no_cue_DOWN,NULL,Key,keypress1,Key,NA,Never,UVA,neutral-right.png,3,1697,NULL
1648415356,ea4822a528ee3bb453e635d65811542e,PennController,41,0,trial_1_no_cue_DOWN,NULL,PennController,45,_Trial_,End,1648414150060,UVA,neutral-right.png,3,1697,NULL
1648415356,ea4822a528ee3bb453e635d65811542e,PennController,35,0,trial_1_no_cue_UP,NULL,PennController,39,_Trial_,Start,1648414150063,UVA,neutral-right.png,3,1246,NULL
1648415356,ea4822a528ee3bb453e635d65811542e,PennController,35,0,trial_1_no_cue_UP,NULL,PennController,39,_Header_,Start,1648414150063,UVA,neutral-right.png,3,1246,NULL
1648415356,ea4822a528ee3bb453e635d65811542e,PennController,35,0,trial_1_no_cue_UP,NULL,PennController,39,_Header_,End,1648414150063,UVA,neutral-right.png,3,1246,NULL
1648415356,ea4822a528ee3bb453e635d65811542e,PennController,35,0,trial_1_no_cue_UP,NULL,Canvas,center,Print,NA,1648414151092,UVA,neutral-right.png,3,1246,NULL
1648415356,ea4822a528ee3bb453e635d65811542e,PennController,35,0,trial_1_no_cue_UP,NULL,Key,keypress1,PressedKey,S,1648414152339,UVA,neutral-right.png,3,1246,NULL
1648415356,ea4822a528ee3bb453e635d65811542e,PennController,35,0,trial_1_no_cue_UP,NULL,PennController,39,_Trial_,End,1648414154841,UVA,neutral-right.png,3,1246,NULL
1648415356,ea4822a528ee3bb453e635d65811542e,PennController,71,0,trial_4_spatial_cue_UP,NULL,PennController,75,_Trial_,Start,1648414154843,UVA,neutral-right.png,3,250,NULL
1648415356,ea4822a528ee3bb453e635d65811542e,PennController,71,0,trial_4_spatial_cue_UP,NULL,PennController,75,_Header_,Start,1648414154843,UVA,neutral-right.png,3,250,NULL
1648415356,ea4822a528ee3bb453e635d65811542e,PennController,71,0,trial_4_spatial_cue_UP,NULL,PennController,75,_Header_,End,1648414154843,UVA,neutral-right.png,3,250,NULL
1648415356,ea4822a528ee3bb453e635d65811542e,PennController,71,0,trial_4_spatial_cue_UP,NULL,Canvas,center,Print,NA,1648414156325,UVA,neutral-right.png,3,250,NULL
1648415356,ea4822a528ee3bb453e635d65811542e,PennController,71,0,trial_4_spatial_cue_UP,NULL,Key,keypress1,PressedKey,K,1648414156576,UVA,neutral-right.png,3,250,NULL
1648415356,ea4822a528ee3bb453e635d65811542e,PennController,71,0,trial_4_spatial_cue_UP,NULL,PennController,75,_Trial_,End,1648414158844,UVA,neutral-right.png,3,250,NULL
1648415356,ea4822a528ee3bb453e635d65811542e,PennController,50,0,trial_2_center_cue_UP,NULL,PennController,54,_Trial_,Start,1648414158846,UVA,neutral-left.png,6,511,NULL
1648415356,ea4822a528ee3bb453e635d65811542e,PennController,50,0,trial_2_center_cue_UP,NULL,PennController,54,_Header_,Start,1648414158846,UVA,neutral-left.png,6,511,NULL
1648415356,ea4822a528ee3bb453e635d65811542e,PennController,50,0,trial_2_center_cue_UP,NULL,PennController,54,_Header_,End,1648414158846,UVA,neutral-left.png,6,511,NULL
1648415356,ea4822a528ee3bb453e635d65811542e,PennController,50,0,trial_2_center_cue_UP,NULL,Canvas,center,Print,NA,1648414160297,UVA,neutral-left.png,6,511,NULL
1648415356,ea4822a528ee3bb453e635d65811542e,PennController,50,0,trial_2_center_cue_UP,NULL,Key,keypress1,PressedKey,K,1648414160810,UVA,neutral-left.png,6,511,NULL
1648415356,ea4822a528ee3bb453e635d65811542e,PennController,50,0,trial_2_center_cue_UP,NULL,PennController,54,_Trial_,End,1648414162849,UVA,neutral-left.png,6,511,NULL
1648415356,ea4822a528ee3bb453e635d65811542e,PennController,73,0,trial_4_spatial_cue_UP,NULL,PennController,77,_Trial_,Start,1648414162851,UVA,incong-left.png,5,239,NULL
1648415356,ea4822a528ee3bb453e635d65811542e,PennController,73,0,trial_4_spatial_cue_UP,NULL,PennController,77,_Header_,Start,1648414162851,UVA,incong-left.png,5,239,NULL
1648415356,ea4822a528ee3bb453e635d65811542e,PennController,73,0,trial_4_spatial_cue_UP,NULL,PennController,77,_Header_,End,1648414162851,UVA,incong-left.png,5,239,NULL
1648415356,ea4822a528ee3bb453e635d65811542e,PennController,73,0,trial_4_spatial_cue_UP,NULL,Canvas,center,Print,NA,1648414164677,UVA,incong-left.png,5,239,NULL
1648415356,ea4822a528ee3bb453e635d65811542e,PennController,73,0,trial_4_spatial_cue_UP,NULL,Key,keypress1,PressedKey,S,1648414164916,UVA,incong-left.png,5,239,NULL
1648415356,ea4822a528ee3bb453e635d65811542e,PennController,73,0,trial_4_spatial_cue_UP,NULL,PennController,77,_Trial_,End,1648414166853,UVA,incong-left.png,5,239,NULL
1648415356,ea4822a528ee3bb453e635d65811542e,PennController,64,0,trial_3_double_cue_DOWN,NULL,PennController,68,_Trial_,Start,1648414166857,UVA,incong-right.png,2,463,NULL
1648415356,ea4822a528ee3bb453e635d65811542e,PennController,64,0,trial_3_double_cue_DOWN,NULL,PennController,68,_Header_,Start,1648414166857,UVA,incong-right.png,2,463,NULL
1648415356,ea4822a528ee3bb453e635d65811542e,PennController,64,0,trial_3_double_cue_DOWN,NULL,PennController,68,_Header_,End,1648414166857,UVA,incong-right.png,2,463,NULL
1648415356,ea4822a528ee3bb453e635d65811542e,PennController,64,0,trial_3_double_cue_DOWN,NULL,Canvas,center,Print,NA,1648414168467,UVA,incong-right.png,2,463,NULL
1648415356,ea4822a528ee3bb453e635d65811542e,PennController,64,0,trial_3_double_cue_DOWN,NULL,Key,keypress1,PressedKey,K,1648414168932,UVA,incong-right.png,2,463,NULL
1648415356,ea4822a528ee3bb453e635d65811542e,PennController,64,0,trial_3_double_cue_DOWN,NULL,PennController,68,_Trial_,End,1648414170862,UVA,incong-right.png,2,463,NULL
1648415356,ea4822a528ee3bb453e635d65811542e,PennController,65,0,trial_3_double_cue_DOWN,NULL,PennController,69,_Trial_,Start,1648414170864,UVA,neutral-right.png,3,416,NULL
1648415356,ea4822a528ee3bb453e635d65811542e,PennController,65,0,trial_3_double_cue_DOWN,NULL,PennController,69,_Header_,Start,1648414170864,UVA,neutral-right.png,3,416,NULL
1648415356,ea4822a528ee3bb453e635d65811542e,PennController,65,0,trial_3_double_cue_DOWN,NULL,PennController,69,_Header_,End,1648414170864,UVA,neutral-right.png,3,416,NULL
1648415356,ea4822a528ee3bb453e635d65811542e,PennController,65,0,trial_3_double_cue_DOWN,NULL,Canvas,center,Print,NA,1648414171891,UVA,neutral-right.png,3,416,NULL
1648415356,ea4822a528ee3bb453e635d65811542e,PennController,65,0,trial_3_double_cue_DOWN,NULL,Key,keypress1,PressedKey,S,1648414172308,UVA,neutral-right.png,3,416,NULL
1648415356,ea4822a528ee3bb453e635d65811542e,PennController,65,0,trial_3_double_cue_DOWN,NULL,PennController,69,_Trial_,End,1648414174866,UVA,neutral-right.png,3,416,NULL
1648415356,ea4822a528ee3bb453e635d65811542e,PennController,41,0,trial_1_no_cue_DOWN,NULL,PennController,45,_Trial_,Start,1648414174869,UVA,neutral-right.png,3,522,NULL
1648415356,ea4822a528ee3bb453e635d65811542e,PennController,41,0,trial_1_no_cue_DOWN,NULL,PennController,45,_Header_,Start,1648414174869,UVA,neutral-right.png,3,522,NULL
1648415356,ea4822a528ee3bb453e635d65811542e,PennController,41,0,trial_1_no_cue_DOWN,NULL,PennController,45,_Header_,End,1648414174869,UVA,neutral-right.png,3,522,NULL
1648415356,ea4822a528ee3bb453e635d65811542e,PennController,41,0,trial_1_no_cue_DOWN,NULL,Canvas,center,Print,NA,1648414176721,UVA,neutral-right.png,3,522,NULL
1648415356,ea4822a528ee3bb453e635d65811542e,PennController,41,0,trial_1_no_cue_DOWN,NULL,Key,keypress1,PressedKey,K,1648414177245,UVA,neutral-right.png,3,522,NULL
1648415356,ea4822a528ee3bb453e635d65811542e,PennController,41,0,trial_1_no_cue_DOWN,NULL,PennController,45,_Trial_,End,1648414179750,UVA,neutral-right.png,3,522,NULL
1648415356,ea4822a528ee3bb453e635d65811542e,PennController,78,0,trial_4_spatial_cue_DOWN,NULL,PennController,82,_Trial_,Start,1648414179752,UVA,cong-left.png,4,227,NULL
1648415356,ea4822a528ee3bb453e635d65811542e,PennController,78,0,trial_4_spatial_cue_DOWN,NULL,PennController,82,_Header_,Start,1648414179752,UVA,cong-left.png,4,227,NULL
1648415356,ea4822a528ee3bb453e635d65811542e,PennController,78,0,trial_4_spatial_cue_DOWN,NULL,PennController,82,_Header_,End,1648414179752,UVA,cong-left.png,4,227,NULL
1648415356,ea4822a528ee3bb453e635d65811542e,PennController,78,0,trial_4_spatial_cue_DOWN,NULL,Canvas,center,Print,NA,1648414180878,UVA,cong-left.png,4,227,NULL
1648415356,ea4822a528ee3bb453e635d65811542e,PennController,78,0,trial_4_spatial_cue_DOWN,NULL,Key,keypress1,PressedKey,S,1648414181106,UVA,cong-left.png,4,227,NULL
1648415356,ea4822a528ee3bb453e635d65811542e,PennController,78,0,trial_4_spatial_cue_DOWN,NULL,PennController,82,_Trial_,End,1648414183755,UVA,cong-left.png,4,227,NULL
1648415356,ea4822a528ee3bb453e635d65811542e,PennController,37,0,trial_1_no_cue_UP,NULL,PennController,41,_Trial_,Start,1648414183758,UVA,incong-left.png,5,326,NULL
1648415356,ea4822a528ee3bb453e635d65811542e,PennController,37,0,trial_1_no_cue_UP,NULL,PennController,41,_Header_,Start,1648414183758,UVA,incong-left.png,5,326,NULL
1648415356,ea4822a528ee3bb453e635d65811542e,PennController,37,0,trial_1_no_cue_UP,NULL,PennController,41,_Header_,End,1648414183758,UVA,incong-left.png,5,326,NULL
1648415356,ea4822a528ee3bb453e635d65811542e,PennController,37,0,trial_1_no_cue_UP,NULL,Canvas,center,Print,NA,1648414185811,UVA,incong-left.png,5,326,NULL
1648415356,ea4822a528ee3bb453e635d65811542e,PennController,37,0,trial_1_no_cue_UP,NULL,Key,keypress1,PressedKey,K,1648414186138,UVA,incong-left.png,5,326,NULL
1648415356,ea4822a528ee3bb453e635d65811542e,PennController,37,0,trial_1_no_cue_UP,NULL,PennController,41,_Trial_,End,1648414188640,UVA,incong-left.png,5,326,NULL
1648415356,ea4822a528ee3bb453e635d65811542e,PennController,79,0,trial_4_spatial_cue_DOWN,NULL,PennController,83,_Trial_,Start,1648414188643,UVA,incong-left.png,5,274,NULL
1648415356,ea4822a528ee3bb453e635d65811542e,PennController,79,0,trial_4_spatial_cue_DOWN,NULL,PennController,83,_Header_,Start,1648414188643,UVA,incong-left.png,5,274,NULL
1648415356,ea4822a528ee3bb453e635d65811542e,PennController,79,0,trial_4_spatial_cue_DOWN,NULL,PennController,83,_Header_,End,1648414188643,UVA,incong-left.png,5,274,NULL
1648415356,ea4822a528ee3bb453e635d65811542e,PennController,79,0,trial_4_spatial_cue_DOWN,NULL,Canvas,center,Print,NA,1648414190221,UVA,incong-left.png,5,274,NULL
1648415356,ea4822a528ee3bb453e635d65811542e,PennController,79,0,trial_4_spatial_cue_DOWN,NULL,Key,keypress1,PressedKey,S,1648414190496,UVA,incong-left.png,5,274,NULL
1648415356,ea4822a528ee3bb453e635d65811542e,PennController,79,0,trial_4_spatial_cue_DOWN,NULL,PennController,83,_Trial_,End,1648414192648,UVA,incong-left.png,5,274,NULL
1648415356,ea4822a528ee3bb453e635d65811542e,PennController,46,0,trial_2_center_cue_UP,NULL,PennController,50,_Trial_,Start,1648414192649,UVA,incong-right.png,2,265,NULL
1648415356,ea4822a528ee3bb453e635d65811542e,PennController,46,0,trial_2_center_cue_UP,NULL,PennController,50,_Header_,Start,1648414192649,UVA,incong-right.png,2,265,NULL
1648415356,ea4822a528ee3bb453e635d65811542e,PennController,46,0,trial_2_center_cue_UP,NULL,PennController,50,_Header_,End,1648414192649,UVA,incong-right.png,2,265,NULL
1648415356,ea4822a528ee3bb453e635d65811542e,PennController,46,0,trial_2_center_cue_UP,NULL,Canvas,center,Print,NA,1648414193621,UVA,incong-right.png,2,265,NULL
1648415356,ea4822a528ee3bb453e635d65811542e,PennController,46,0,trial_2_center_cue_UP,NULL,Key,keypress1,PressedKey,K,1648414193888,UVA,incong-right.png,2,265,NULL
1648415356,ea4822a528ee3bb453e635d65811542e,PennController,46,0,trial_2_center_cue_UP,NULL,PennController,50,_Trial_,End,1648414196651,UVA,incong-right.png,2,265,NULL
1648415356,ea4822a528ee3bb453e635d65811542e,PennController,56,0,trial_2_center_cue_DOWN,NULL,PennController,60,_Trial_,Start,1648414196653,UVA,neutral-left.png,6,267,NULL
1648415356,ea4822a528ee3bb453e635d65811542e,PennController,56,0,trial_2_center_cue_DOWN,NULL,PennController,60,_Header_,Start,1648414196653,UVA,neutral-left.png,6,267,NULL
1648415356,ea4822a528ee3bb453e635d65811542e,PennController,56,0,trial_2_center_cue_DOWN,NULL,PennController,60,_Header_,End,1648414196653,UVA,neutral-left.png,6,267,NULL
1648415356,ea4822a528ee3bb453e635d65811542e,PennController,56,0,trial_2_center_cue_DOWN,NULL,Canvas,center,Print,NA,1648414197867,UVA,neutral-left.png,6,267,NULL
1648415356,ea4822a528ee3bb453e635d65811542e,PennController,56,0,trial_2_center_cue_DOWN,NULL,Key,keypress1,PressedKey,K,1648414198136,UVA,neutral-left.png,6,267,NULL
1648415356,ea4822a528ee3bb453e635d65811542e,PennController,56,0,trial_2_center_cue_DOWN,NULL,PennController,60,_Trial_,End,1648414200655,UVA,neutral-left.png,6,267,NULL
1648415356,ea4822a528ee3bb453e635d65811542e,PennController,57,0,trial_3_double_cue_UP,NULL,PennController,61,_Trial_,Start,1648414200657,UVA,cong-right.png,1,325,NULL
1648415356,ea4822a528ee3bb453e635d65811542e,PennController,57,0,trial_3_double_cue_UP,NULL,PennController,61,_Header_,Start,1648414200657,UVA,cong-right.png,1,325,NULL
1648415356,ea4822a528ee3bb453e635d65811542e,PennController,57,0,trial_3_double_cue_UP,NULL,PennController,61,_Header_,End,1648414200657,UVA,cong-right.png,1,325,NULL
1648415356,ea4822a528ee3bb453e635d65811542e,PennController,57,0,trial_3_double_cue_UP,NULL,Canvas,center,Print,NA,1648414202257,UVA,cong-right.png,1,325,NULL
1648415356,ea4822a528ee3bb453e635d65811542e,PennController,57,0,trial_3_double_cue_UP,NULL,Key,keypress1,PressedKey,S,1648414202583,UVA,cong-right.png,1,325,NULL
1648415356,ea4822a528ee3bb453e635d65811542e,PennController,57,0,trial_3_double_cue_UP,NULL,PennController,61,_Trial_,End,1648414204659,UVA,cong-right.png,1,325,NULL
1648415356,ea4822a528ee3bb453e635d65811542e,PennController,53,0,trial_2_center_cue_DOWN,NULL,PennController,57,_Trial_,Start,1648414204661,UVA,neutral-right.png,3,1696,NULL
1648415356,ea4822a528ee3bb453e635d65811542e,PennController,53,0,trial_2_center_cue_DOWN,NULL,PennController,57,_Header_,Start,1648414204661,UVA,neutral-right.png,3,1696,NULL
1648415356,ea4822a528ee3bb453e635d65811542e,PennController,53,0,trial_2_center_cue_DOWN,NULL,PennController,57,_Header_,End,1648414204661,UVA,neutral-right.png,3,1696,NULL
1648415356,ea4822a528ee3bb453e635d65811542e,PennController,53,0,trial_2_center_cue_DOWN,NULL,Canvas,center,Print,NA,1648414206220,UVA,neutral-right.png,3,1696,NULL
1648415356,ea4822a528ee3bb453e635d65811542e,PennController,53,0,trial_2_center_cue_DOWN,NULL,Key,keypress1,Key,NA,Never,UVA,neutral-right.png,3,1696,NULL
1648415356,ea4822a528ee3bb453e635d65811542e,PennController,53,0,trial_2_center_cue_DOWN,NULL,PennController,57,_Trial_,End,1648414208664,UVA,neutral-right.png,3,1696,NULL
1648415356,ea4822a528ee3bb453e635d65811542e,PennController,57,0,trial_3_double_cue_UP,NULL,PennController,61,_Trial_,Start,1648414208666,UVA,cong-right.png,1,408,NULL
1648415356,ea4822a528ee3bb453e635d65811542e,PennController,57,0,trial_3_double_cue_UP,NULL,PennController,61,_Header_,Start,1648414208666,UVA,cong-right.png,1,408,NULL
1648415356,ea4822a528ee3bb453e635d65811542e,PennController,57,0,trial_3_double_cue_UP,NULL,PennController,61,_Header_,End,1648414208666,UVA,cong-right.png,1,408,NULL
1648415356,ea4822a528ee3bb453e635d65811542e,PennController,57,0,trial_3_double_cue_UP,NULL,Canvas,center,Print,NA,1648414210268,UVA,cong-right.png,1,408,NULL
1648415356,ea4822a528ee3bb453e635d65811542e,PennController,57,0,trial_3_double_cue_UP,NULL,Key,keypress1,PressedKey,K,1648414210678,UVA,cong-right.png,1,408,NULL
1648415356,ea4822a528ee3bb453e635d65811542e,PennController,57,0,trial_3_double_cue_UP,NULL,PennController,61,_Trial_,End,1648414212671,UVA,cong-right.png,1,408,NULL
1648415356,ea4822a528ee3bb453e635d65811542e,PennController,42,0,trial_1_no_cue_DOWN,NULL,PennController,46,_Trial_,Start,1648414212674,UVA,cong-left.png,4,719,NULL
1648415356,ea4822a528ee3bb453e635d65811542e,PennController,42,0,trial_1_no_cue_DOWN,NULL,PennController,46,_Header_,Start,1648414212674,UVA,cong-left.png,4,719,NULL
1648415356,ea4822a528ee3bb453e635d65811542e,PennController,42,0,trial_1_no_cue_DOWN,NULL,PennController,46,_Header_,End,1648414212674,UVA,cong-left.png,4,719,NULL
1648415356,ea4822a528ee3bb453e635d65811542e,PennController,42,0,trial_1_no_cue_DOWN,NULL,Canvas,center,Print,NA,1648414214569,UVA,cong-left.png,4,719,NULL
1648415356,ea4822a528ee3bb453e635d65811542e,PennController,42,0,trial_1_no_cue_DOWN,NULL,Key,keypress1,PressedKey,S,1648414215289,UVA,cong-left.png,4,719,NULL
1648415356,ea4822a528ee3bb453e635d65811542e,PennController,42,0,trial_1_no_cue_DOWN,NULL,PennController,46,_Trial_,End,1648414217797,UVA,cong-left.png,4,719,NULL
1648415356,ea4822a528ee3bb453e635d65811542e,PennController,37,0,trial_1_no_cue_UP,NULL,PennController,41,_Trial_,Start,1648414217799,UVA,incong-left.png,5,770,NULL
1648415356,ea4822a528ee3bb453e635d65811542e,PennController,37,0,trial_1_no_cue_UP,NULL,PennController,41,_Header_,Start,1648414217799,UVA,incong-left.png,5,770,NULL
1648415356,ea4822a528ee3bb453e635d65811542e,PennController,37,0,trial_1_no_cue_UP,NULL,PennController,41,_Header_,End,1648414217799,UVA,incong-left.png,5,770,NULL
1648415356,ea4822a528ee3bb453e635d65811542e,PennController,37,0,trial_1_no_cue_UP,NULL,Canvas,center,Print,NA,1648414219853,UVA,incong-left.png,5,770,NULL
1648415356,ea4822a528ee3bb453e635d65811542e,PennController,37,0,trial_1_no_cue_UP,NULL,Key,keypress1,PressedKey,K,1648414220625,UVA,incong-left.png,5,770,NULL
1648415356,ea4822a528ee3bb453e635d65811542e,PennController,37,0,trial_1_no_cue_UP,NULL,PennController,41,_Trial_,End,1648414223133,UVA,incong-left.png,5,770,NULL
1648415356,ea4822a528ee3bb453e635d65811542e,PennController,70,0,trial_4_spatial_cue_UP,NULL,PennController,74,_Trial_,Start,1648414223135,UVA,incong-right.png,2,1698,NULL
1648415356,ea4822a528ee3bb453e635d65811542e,PennController,70,0,trial_4_spatial_cue_UP,NULL,PennController,74,_Header_,Start,1648414223135,UVA,incong-right.png,2,1698,NULL
1648415356,ea4822a528ee3bb453e635d65811542e,PennController,70,0,trial_4_spatial_cue_UP,NULL,PennController,74,_Header_,End,1648414223136,UVA,incong-right.png,2,1698,NULL
1648415356,ea4822a528ee3bb453e635d65811542e,PennController,70,0,trial_4_spatial_cue_UP,NULL,Canvas,center,Print,NA,1648414224114,UVA,incong-right.png,2,1698,NULL
1648415356,ea4822a528ee3bb453e635d65811542e,PennController,70,0,trial_4_spatial_cue_UP,NULL,Key,keypress1,Key,NA,Never,UVA,incong-right.png,2,1698,NULL
1648415356,ea4822a528ee3bb453e635d65811542e,PennController,70,0,trial_4_spatial_cue_UP,NULL,PennController,74,_Trial_,End,1648414227138,UVA,incong-right.png,2,1698,NULL
1648415356,ea4822a528ee3bb453e635d65811542e,PennController,49,0,trial_2_center_cue_UP,NULL,PennController,53,_Trial_,Start,1648414227141,UVA,incong-left.png,5,1699,NULL
1648415356,ea4822a528ee3bb453e635d65811542e,PennController,49,0,trial_2_center_cue_UP,NULL,PennController,53,_Header_,Start,1648414227141,UVA,incong-left.png,5,1699,NULL
1648415356,ea4822a528ee3bb453e635d65811542e,PennController,49,0,trial_2_center_cue_UP,NULL,PennController,53,_Header_,End,1648414227141,UVA,incong-left.png,5,1699,NULL
1648415356,ea4822a528ee3bb453e635d65811542e,PennController,49,0,trial_2_center_cue_UP,NULL,Canvas,center,Print,NA,1648414228462,UVA,incong-left.png,5,1699,NULL
1648415356,ea4822a528ee3bb453e635d65811542e,PennController,49,0,trial_2_center_cue_UP,NULL,Key,keypress1,Key,NA,Never,UVA,incong-left.png,5,1699,NULL
1648415356,ea4822a528ee3bb453e635d65811542e,PennController,49,0,trial_2_center_cue_UP,NULL,PennController,53,_Trial_,End,1648414231144,UVA,incong-left.png,5,1699,NULL
1648415356,ea4822a528ee3bb453e635d65811542e,PennController,72,0,trial_4_spatial_cue_UP,NULL,PennController,76,_Trial_,Start,1648414231146,UVA,cong-left.png,4,1698,NULL
1648415356,ea4822a528ee3bb453e635d65811542e,PennController,72,0,trial_4_spatial_cue_UP,NULL,PennController,76,_Header_,Start,1648414231146,UVA,cong-left.png,4,1698,NULL
1648415356,ea4822a528ee3bb453e635d65811542e,PennController,72,0,trial_4_spatial_cue_UP,NULL,PennController,76,_Header_,End,1648414231146,UVA,cong-left.png,4,1698,NULL
1648415356,ea4822a528ee3bb453e635d65811542e,PennController,72,0,trial_4_spatial_cue_UP,NULL,Canvas,center,Print,NA,1648414232339,UVA,cong-left.png,4,1698,NULL
1648415356,ea4822a528ee3bb453e635d65811542e,PennController,72,0,trial_4_spatial_cue_UP,NULL,Key,keypress1,Key,NA,Never,UVA,cong-left.png,4,1698,NULL
1648415356,ea4822a528ee3bb453e635d65811542e,PennController,72,0,trial_4_spatial_cue_UP,NULL,PennController,76,_Trial_,End,1648414235151,UVA,cong-left.png,4,1698,NULL
1648415356,ea4822a528ee3bb453e635d65811542e,PennController,68,0,trial_3_double_cue_DOWN,NULL,PennController,72,_Trial_,Start,1648414235152,UVA,neutral-left.png,6,1699,NULL
1648415356,ea4822a528ee3bb453e635d65811542e,PennController,68,0,trial_3_double_cue_DOWN,NULL,PennController,72,_Header_,Start,1648414235152,UVA,neutral-left.png,6,1699,NULL
1648415356,ea4822a528ee3bb453e635d65811542e,PennController,68,0,trial_3_double_cue_DOWN,NULL,PennController,72,_Header_,End,1648414235152,UVA,neutral-left.png,6,1699,NULL
1648415356,ea4822a528ee3bb453e635d65811542e,PennController,68,0,trial_3_double_cue_DOWN,NULL,Canvas,center,Print,NA,1648414236257,UVA,neutral-left.png,6,1699,NULL
1648415356,ea4822a528ee3bb453e635d65811542e,PennController,68,0,trial_3_double_cue_DOWN,NULL,Key,keypress1,Key,NA,Never,UVA,neutral-left.png,6,1699,NULL
1648415356,ea4822a528ee3bb453e635d65811542e,PennController,68,0,trial_3_double_cue_DOWN,NULL,PennController,72,_Trial_,End,1648414239155,UVA,neutral-left.png,6,1699,NULL
1648415356,ea4822a528ee3bb453e635d65811542e,PennController,66,0,trial_3_double_cue_DOWN,NULL,PennController,70,_Trial_,Start,1648414239157,UVA,cong-left.png,4,1698,NULL
1648415356,ea4822a528ee3bb453e635d65811542e,PennController,66,0,trial_3_double_cue_DOWN,NULL,PennController,70,_Header_,Start,1648414239157,UVA,cong-left.png,4,1698,NULL
1648415356,ea4822a528ee3bb453e635d65811542e,PennController,66,0,trial_3_double_cue_DOWN,NULL,PennController,70,_Header_,End,1648414239157,UVA,cong-left.png,4,1698,NULL
1648415356,ea4822a528ee3bb453e635d65811542e,PennController,66,0,trial_3_double_cue_DOWN,NULL,Canvas,center,Print,NA,1648414240484,UVA,cong-left.png,4,1698,NULL
1648415356,ea4822a528ee3bb453e635d65811542e,PennController,66,0,trial_3_double_cue_DOWN,NULL,Key,keypress1,Key,NA,Never,UVA,cong-left.png,4,1698,NULL
1648415356,ea4822a528ee3bb453e635d65811542e,PennController,66,0,trial_3_double_cue_DOWN,NULL,PennController,70,_Trial_,End,1648414243160,UVA,cong-left.png,4,1698,NULL
1648415356,ea4822a528ee3bb453e635d65811542e,PennController,40,0,trial_1_no_cue_DOWN,NULL,PennController,44,_Trial_,Start,1648414243161,UVA,incong-right.png,2,1698,NULL
1648415356,ea4822a528ee3bb453e635d65811542e,PennController,40,0,trial_1_no_cue_DOWN,NULL,PennController,44,_Header_,Start,1648414243161,UVA,incong-right.png,2,1698,NULL
1648415356,ea4822a528ee3bb453e635d65811542e,PennController,40,0,trial_1_no_cue_DOWN,NULL,PennController,44,_Header_,End,1648414243161,UVA,incong-right.png,2,1698,NULL
1648415356,ea4822a528ee3bb453e635d65811542e,PennController,40,0,trial_1_no_cue_DOWN,NULL,Canvas,center,Print,NA,1648414244666,UVA,incong-right.png,2,1698,NULL
1648415356,ea4822a528ee3bb453e635d65811542e,PennController,40,0,trial_1_no_cue_DOWN,NULL,Key,keypress1,Key,NA,Never,UVA,incong-right.png,2,1698,NULL
1648415356,ea4822a528ee3bb453e635d65811542e,PennController,40,0,trial_1_no_cue_DOWN,NULL,PennController,44,_Trial_,End,1648414248870,UVA,incong-right.png,2,1698,NULL
1648415356,ea4822a528ee3bb453e635d65811542e,PennController,79,0,trial_4_spatial_cue_DOWN,NULL,PennController,83,_Trial_,Start,1648414248872,UVA,incong-left.png,5,436,NULL
1648415356,ea4822a528ee3bb453e635d65811542e,PennController,79,0,trial_4_spatial_cue_DOWN,NULL,PennController,83,_Header_,Start,1648414248872,UVA,incong-left.png,5,436,NULL
1648415356,ea4822a528ee3bb453e635d65811542e,PennController,79,0,trial_4_spatial_cue_DOWN,NULL,PennController,83,_Header_,End,1648414248872,UVA,incong-left.png,5,436,NULL
1648415356,ea4822a528ee3bb453e635d65811542e,PennController,79,0,trial_4_spatial_cue_DOWN,NULL,Canvas,center,Print,NA,1648414250457,UVA,incong-left.png,5,436,NULL
1648415356,ea4822a528ee3bb453e635d65811542e,PennController,79,0,trial_4_spatial_cue_DOWN,NULL,Key,keypress1,PressedKey,S,1648414250894,UVA,incong-left.png,5,436,NULL
1648415356,ea4822a528ee3bb453e635d65811542e,PennController,79,0,trial_4_spatial_cue_DOWN,NULL,PennController,83,_Trial_,End,1648414252875,UVA,incong-left.png,5,436,NULL
1648415356,ea4822a528ee3bb453e635d65811542e,PennController,36,0,trial_1_no_cue_UP,NULL,PennController,40,_Trial_,Start,1648414252877,UVA,cong-left.png,4,1432,NULL
1648415356,ea4822a528ee3bb453e635d65811542e,PennController,36,0,trial_1_no_cue_UP,NULL,PennController,40,_Header_,Start,1648414252877,UVA,cong-left.png,4,1432,NULL
1648415356,ea4822a528ee3bb453e635d65811542e,PennController,36,0,trial_1_no_cue_UP,NULL,PennController,40,_Header_,End,1648414252877,UVA,cong-left.png,4,1432,NULL
1648415356,ea4822a528ee3bb453e635d65811542e,PennController,36,0,trial_1_no_cue_UP,NULL,Canvas,center,Print,NA,1648414254570,UVA,cong-left.png,4,1432,NULL
1648415356,ea4822a528ee3bb453e635d65811542e,PennController,36,0,trial_1_no_cue_UP,NULL,Key,keypress1,PressedKey,K,1648414256003,UVA,cong-left.png,4,1432,NULL
1648415356,ea4822a528ee3bb453e635d65811542e,PennController,36,0,trial_1_no_cue_UP,NULL,PennController,40,_Trial_,End,1648414258509,UVA,cong-left.png,4,1432,NULL
1648415356,ea4822a528ee3bb453e635d65811542e,PennController,77,0,trial_4_spatial_cue_DOWN,NULL,PennController,81,_Trial_,Start,1648414258511,UVA,neutral-right.png,3,1097,NULL
1648415356,ea4822a528ee3bb453e635d65811542e,PennController,77,0,trial_4_spatial_cue_DOWN,NULL,PennController,81,_Header_,Start,1648414258511,UVA,neutral-right.png,3,1097,NULL
1648415356,ea4822a528ee3bb453e635d65811542e,PennController,77,0,trial_4_spatial_cue_DOWN,NULL,PennController,81,_Header_,End,1648414258511,UVA,neutral-right.png,3,1097,NULL
1648415356,ea4822a528ee3bb453e635d65811542e,PennController,77,0,trial_4_spatial_cue_DOWN,NULL,Canvas,center,Print,NA,1648414260322,UVA,neutral-right.png,3,1097,NULL
1648415356,ea4822a528ee3bb453e635d65811542e,PennController,77,0,trial_4_spatial_cue_DOWN,NULL,Key,keypress1,PressedKey,S,1648414261420,UVA,neutral-right.png,3,1097,NULL
1648415356,ea4822a528ee3bb453e635d65811542e,PennController,77,0,trial_4_spatial_cue_DOWN,NULL,PennController,81,_Trial_,End,1648414262513,UVA,neutral-right.png,3,1097,NULL
1648415356,ea4822a528ee3bb453e635d65811542e,PennController,49,0,trial_2_center_cue_UP,NULL,PennController,53,_Trial_,Start,1648414262515,UVA,incong-left.png,5,740,NULL
1648415356,ea4822a528ee3bb453e635d65811542e,PennController,49,0,trial_2_center_cue_UP,NULL,PennController,53,_Header_,Start,1648414262515,UVA,incong-left.png,5,740,NULL
1648415356,ea4822a528ee3bb453e635d65811542e,PennController,49,0,trial_2_center_cue_UP,NULL,PennController,53,_Header_,End,1648414262515,UVA,incong-left.png,5,740,NULL
1648415356,ea4822a528ee3bb453e635d65811542e,PennController,49,0,trial_2_center_cue_UP,NULL,Canvas,center,Print,NA,1648414263836,UVA,incong-left.png,5,740,NULL
1648415356,ea4822a528ee3bb453e635d65811542e,PennController,49,0,trial_2_center_cue_UP,NULL,Key,keypress1,PressedKey,S,1648414264578,UVA,incong-left.png,5,740,NULL
1648415356,ea4822a528ee3bb453e635d65811542e,PennController,49,0,trial_2_center_cue_UP,NULL,PennController,53,_Trial_,End,1648414266518,UVA,incong-left.png,5,740,NULL
1648415356,ea4822a528ee3bb453e635d65811542e,PennController,55,0,trial_2_center_cue_DOWN,NULL,PennController,59,_Trial_,Start,1648414266521,UVA,incong-left.png,5,1697,NULL
1648415356,ea4822a528ee3bb453e635d65811542e,PennController,55,0,trial_2_center_cue_DOWN,NULL,PennController,59,_Header_,Start,1648414266521,UVA,incong-left.png,5,1697,NULL
1648415356,ea4822a528ee3bb453e635d65811542e,PennController,55,0,trial_2_center_cue_DOWN,NULL,PennController,59,_Header_,End,1648414266521,UVA,incong-left.png,5,1697,NULL
1648415356,ea4822a528ee3bb453e635d65811542e,PennController,55,0,trial_2_center_cue_DOWN,NULL,Canvas,center,Print,NA,1648414267500,UVA,incong-left.png,5,1697,NULL
1648415356,ea4822a528ee3bb453e635d65811542e,PennController,55,0,trial_2_center_cue_DOWN,NULL,Key,keypress1,Key,NA,Never,UVA,incong-left.png,5,1697,NULL
1648415356,ea4822a528ee3bb453e635d65811542e,PennController,55,0,trial_2_center_cue_DOWN,NULL,PennController,59,_Trial_,End,1648414270523,UVA,incong-left.png,5,1697,NULL
1648415356,ea4822a528ee3bb453e635d65811542e,PennController,62,0,trial_3_double_cue_UP,NULL,PennController,66,_Trial_,Start,1648414270525,UVA,neutral-left.png,6,1698,NULL
1648415356,ea4822a528ee3bb453e635d65811542e,PennController,62,0,trial_3_double_cue_UP,NULL,PennController,66,_Header_,Start,1648414270525,UVA,neutral-left.png,6,1698,NULL
1648415356,ea4822a528ee3bb453e635d65811542e,PennController,62,0,trial_3_double_cue_UP,NULL,PennController,66,_Header_,End,1648414270525,UVA,neutral-left.png,6,1698,NULL
1648415356,ea4822a528ee3bb453e635d65811542e,PennController,62,0,trial_3_double_cue_UP,NULL,Canvas,center,Print,NA,1648414272172,UVA,neutral-left.png,6,1698,NULL
1648415356,ea4822a528ee3bb453e635d65811542e,PennController,62,0,trial_3_double_cue_UP,NULL,Key,keypress1,Key,NA,Never,UVA,neutral-left.png,6,1698,NULL
1648415356,ea4822a528ee3bb453e635d65811542e,PennController,62,0,trial_3_double_cue_UP,NULL,PennController,66,_Trial_,End,1648414274527,UVA,neutral-left.png,6,1698,NULL
1648415356,ea4822a528ee3bb453e635d65811542e,PennController,52,0,trial_2_center_cue_DOWN,NULL,PennController,56,_Trial_,Start,1648414274529,UVA,incong-right.png,2,1700,NULL
1648415356,ea4822a528ee3bb453e635d65811542e,PennController,52,0,trial_2_center_cue_DOWN,NULL,PennController,56,_Header_,Start,1648414274529,UVA,incong-right.png,2,1700,NULL
1648415356,ea4822a528ee3bb453e635d65811542e,PennController,52,0,trial_2_center_cue_DOWN,NULL,PennController,56,_Header_,End,1648414274529,UVA,incong-right.png,2,1700,NULL
1648415356,ea4822a528ee3bb453e635d65811542e,PennController,52,0,trial_2_center_cue_DOWN,NULL,Canvas,center,Print,NA,1648414275648,UVA,incong-right.png,2,1700,NULL
1648415356,ea4822a528ee3bb453e635d65811542e,PennController,52,0,trial_2_center_cue_DOWN,NULL,Key,keypress1,Key,NA,Never,UVA,incong-right.png,2,1700,NULL
1648415356,ea4822a528ee3bb453e635d65811542e,PennController,52,0,trial_2_center_cue_DOWN,NULL,PennController,56,_Trial_,End,1648414278532,UVA,incong-right.png,2,1700,NULL
1648415356,ea4822a528ee3bb453e635d65811542e,PennController,62,0,trial_3_double_cue_UP,NULL,PennController,66,_Trial_,Start,1648414278534,UVA,neutral-left.png,6,1697,NULL
1648415356,ea4822a528ee3bb453e635d65811542e,PennController,62,0,trial_3_double_cue_UP,NULL,PennController,66,_Header_,Start,1648414278534,UVA,neutral-left.png,6,1697,NULL
1648415356,ea4822a528ee3bb453e635d65811542e,PennController,62,0,trial_3_double_cue_UP,NULL,PennController,66,_Header_,End,1648414278534,UVA,neutral-left.png,6,1697,NULL
1648415356,ea4822a528ee3bb453e635d65811542e,PennController,62,0,trial_3_double_cue_UP,NULL,Canvas,center,Print,NA,1648414280182,UVA,neutral-left.png,6,1697,NULL
1648415356,ea4822a528ee3bb453e635d65811542e,PennController,62,0,trial_3_double_cue_UP,NULL,Key,keypress1,Key,NA,Never,UVA,neutral-left.png,6,1697,NULL
1648415356,ea4822a528ee3bb453e635d65811542e,PennController,62,0,trial_3_double_cue_UP,NULL,PennController,66,_Trial_,End,1648414282538,UVA,neutral-left.png,6,1697,NULL
1648415356,ea4822a528ee3bb453e635d65811542e,PennController,40,0,trial_1_no_cue_DOWN,NULL,PennController,44,_Trial_,Start,1648414282539,UVA,incong-right.png,2,1699,NULL
1648415356,ea4822a528ee3bb453e635d65811542e,PennController,40,0,trial_1_no_cue_DOWN,NULL,PennController,44,_Header_,Start,1648414282539,UVA,incong-right.png,2,1699,NULL
1648415356,ea4822a528ee3bb453e635d65811542e,PennController,40,0,trial_1_no_cue_DOWN,NULL,PennController,44,_Header_,End,1648414282539,UVA,incong-right.png,2,1699,NULL
1648415356,ea4822a528ee3bb453e635d65811542e,PennController,40,0,trial_1_no_cue_DOWN,NULL,Canvas,center,Print,NA,1648414284042,UVA,incong-right.png,2,1699,NULL
1648415356,ea4822a528ee3bb453e635d65811542e,PennController,40,0,trial_1_no_cue_DOWN,NULL,Key,keypress1,Key,NA,Never,UVA,incong-right.png,2,1699,NULL
1648415356,ea4822a528ee3bb453e635d65811542e,PennController,40,0,trial_1_no_cue_DOWN,NULL,PennController,44,_Trial_,End,1648414288248,UVA,incong-right.png,2,1699,NULL
1648415356,ea4822a528ee3bb453e635d65811542e,PennController,36,0,trial_1_no_cue_UP,NULL,PennController,40,_Trial_,Start,1648414288250,UVA,cong-left.png,4,1068,NULL
1648415356,ea4822a528ee3bb453e635d65811542e,PennController,36,0,trial_1_no_cue_UP,NULL,PennController,40,_Header_,Start,1648414288250,UVA,cong-left.png,4,1068,NULL
1648415356,ea4822a528ee3bb453e635d65811542e,PennController,36,0,trial_1_no_cue_UP,NULL,PennController,40,_Header_,End,1648414288250,UVA,cong-left.png,4,1068,NULL
1648415356,ea4822a528ee3bb453e635d65811542e,PennController,36,0,trial_1_no_cue_UP,NULL,Canvas,center,Print,NA,1648414289942,UVA,cong-left.png,4,1068,NULL
1648415356,ea4822a528ee3bb453e635d65811542e,PennController,36,0,trial_1_no_cue_UP,NULL,Key,keypress1,PressedKey,K,1648414291013,UVA,cong-left.png,4,1068,NULL
1648415356,ea4822a528ee3bb453e635d65811542e,PennController,36,0,trial_1_no_cue_UP,NULL,PennController,40,_Trial_,End,1648414293518,UVA,cong-left.png,4,1068,NULL
1648415356,ea4822a528ee3bb453e635d65811542e,PennController,73,0,trial_4_spatial_cue_UP,NULL,PennController,77,_Trial_,Start,1648414293519,UVA,incong-left.png,5,744,NULL
1648415356,ea4822a528ee3bb453e635d65811542e,PennController,73,0,trial_4_spatial_cue_UP,NULL,PennController,77,_Header_,Start,1648414293519,UVA,incong-left.png,5,744,NULL
1648415356,ea4822a528ee3bb453e635d65811542e,PennController,73,0,trial_4_spatial_cue_UP,NULL,PennController,77,_Header_,End,1648414293519,UVA,incong-left.png,5,744,NULL
1648415356,ea4822a528ee3bb453e635d65811542e,PennController,73,0,trial_4_spatial_cue_UP,NULL,Canvas,center,Print,NA,1648414295346,UVA,incong-left.png,5,744,NULL
1648415356,ea4822a528ee3bb453e635d65811542e,PennController,73,0,trial_4_spatial_cue_UP,NULL,Key,keypress1,PressedKey,S,1648414296092,UVA,incong-left.png,5,744,NULL
1648415356,ea4822a528ee3bb453e635d65811542e,PennController,73,0,trial_4_spatial_cue_UP,NULL,PennController,77,_Trial_,End,1648414297521,UVA,incong-left.png,5,744,NULL
1648415356,ea4822a528ee3bb453e635d65811542e,PennController,45,0,trial_2_center_cue_UP,NULL,PennController,49,_Trial_,Start,1648414297523,UVA,cong-right.png,1,1702,NULL
1648415356,ea4822a528ee3bb453e635d65811542e,PennController,45,0,trial_2_center_cue_UP,NULL,PennController,49,_Header_,Start,1648414297523,UVA,cong-right.png,1,1702,NULL
1648415356,ea4822a528ee3bb453e635d65811542e,PennController,45,0,trial_2_center_cue_UP,NULL,PennController,49,_Header_,End,1648414297523,UVA,cong-right.png,1,1702,NULL
1648415356,ea4822a528ee3bb453e635d65811542e,PennController,45,0,trial_2_center_cue_UP,NULL,Canvas,center,Print,NA,1648414298975,UVA,cong-right.png,1,1702,NULL
1648415356,ea4822a528ee3bb453e635d65811542e,PennController,45,0,trial_2_center_cue_UP,NULL,Key,keypress1,Key,NA,Never,UVA,cong-right.png,1,1702,NULL
1648415356,ea4822a528ee3bb453e635d65811542e,PennController,45,0,trial_2_center_cue_UP,NULL,PennController,49,_Trial_,End,1648414301525,UVA,cong-right.png,1,1702,NULL
1648415356,ea4822a528ee3bb453e635d65811542e,PennController,74,0,trial_4_spatial_cue_UP,NULL,PennController,78,_Trial_,Start,1648414301527,UVA,neutral-left.png,6,1697,NULL
1648415356,ea4822a528ee3bb453e635d65811542e,PennController,74,0,trial_4_spatial_cue_UP,NULL,PennController,78,_Header_,Start,1648414301527,UVA,neutral-left.png,6,1697,NULL
1648415356,ea4822a528ee3bb453e635d65811542e,PennController,74,0,trial_4_spatial_cue_UP,NULL,PennController,78,_Header_,End,1648414301528,UVA,neutral-left.png,6,1697,NULL
1648415356,ea4822a528ee3bb453e635d65811542e,PennController,74,0,trial_4_spatial_cue_UP,NULL,Canvas,center,Print,NA,1648414302841,UVA,neutral-left.png,6,1697,NULL
1648415356,ea4822a528ee3bb453e635d65811542e,PennController,74,0,trial_4_spatial_cue_UP,NULL,Key,keypress1,Key,NA,Never,UVA,neutral-left.png,6,1697,NULL
1648415356,ea4822a528ee3bb453e635d65811542e,PennController,74,0,trial_4_spatial_cue_UP,NULL,PennController,78,_Trial_,End,1648414305529,UVA,neutral-left.png,6,1697,NULL
1648415356,ea4822a528ee3bb453e635d65811542e,PennController,67,0,trial_3_double_cue_DOWN,NULL,PennController,71,_Trial_,Start,1648414305532,UVA,incong-left.png,5,1696,NULL
1648415356,ea4822a528ee3bb453e635d65811542e,PennController,67,0,trial_3_double_cue_DOWN,NULL,PennController,71,_Header_,Start,1648414305532,UVA,incong-left.png,5,1696,NULL
1648415356,ea4822a528ee3bb453e635d65811542e,PennController,67,0,trial_3_double_cue_DOWN,NULL,PennController,71,_Header_,End,1648414305532,UVA,incong-left.png,5,1696,NULL
1648415356,ea4822a528ee3bb453e635d65811542e,PennController,67,0,trial_3_double_cue_DOWN,NULL,Canvas,center,Print,NA,1648414307458,UVA,incong-left.png,5,1696,NULL
1648415356,ea4822a528ee3bb453e635d65811542e,PennController,67,0,trial_3_double_cue_DOWN,NULL,Key,keypress1,Key,NA,Never,UVA,incong-left.png,5,1696,NULL
1648415356,ea4822a528ee3bb453e635d65811542e,PennController,67,0,trial_3_double_cue_DOWN,NULL,PennController,71,_Trial_,End,1648414309535,UVA,incong-left.png,5,1696,NULL
1648415356,ea4822a528ee3bb453e635d65811542e,PennController,67,0,trial_3_double_cue_DOWN,NULL,PennController,71,_Trial_,Start,1648414309537,UVA,incong-left.png,5,1696,NULL
1648415356,ea4822a528ee3bb453e635d65811542e,PennController,67,0,trial_3_double_cue_DOWN,NULL,PennController,71,_Header_,Start,1648414309537,UVA,incong-left.png,5,1696,NULL
1648415356,ea4822a528ee3bb453e635d65811542e,PennController,67,0,trial_3_double_cue_DOWN,NULL,PennController,71,_Header_,End,1648414309537,UVA,incong-left.png,5,1696,NULL
1648415356,ea4822a528ee3bb453e635d65811542e,PennController,67,0,trial_3_double_cue_DOWN,NULL,Canvas,center,Print,NA,1648414311470,UVA,incong-left.png,5,1696,NULL
1648415356,ea4822a528ee3bb453e635d65811542e,PennController,67,0,trial_3_double_cue_DOWN,NULL,Key,keypress1,Key,NA,Never,UVA,incong-left.png,5,1696,NULL
1648415356,ea4822a528ee3bb453e635d65811542e,PennController,67,0,trial_3_double_cue_DOWN,NULL,PennController,71,_Trial_,End,1648414313541,UVA,incong-left.png,5,1696,NULL
1648415356,ea4822a528ee3bb453e635d65811542e,PennController,39,0,trial_1_no_cue_DOWN,NULL,PennController,43,_Trial_,Start,1648414313543,UVA,cong-right.png,1,1109,NULL
1648415356,ea4822a528ee3bb453e635d65811542e,PennController,39,0,trial_1_no_cue_DOWN,NULL,PennController,43,_Header_,Start,1648414313543,UVA,cong-right.png,1,1109,NULL
1648415356,ea4822a528ee3bb453e635d65811542e,PennController,39,0,trial_1_no_cue_DOWN,NULL,PennController,43,_Header_,End,1648414313543,UVA,cong-right.png,1,1109,NULL
1648415356,ea4822a528ee3bb453e635d65811542e,PennController,39,0,trial_1_no_cue_DOWN,NULL,Canvas,center,Print,NA,1648414315390,UVA,cong-right.png,1,1109,NULL
1648415356,ea4822a528ee3bb453e635d65811542e,PennController,39,0,trial_1_no_cue_DOWN,NULL,Key,keypress1,PressedKey,K,1648414316498,UVA,cong-right.png,1,1109,NULL
1648415356,ea4822a528ee3bb453e635d65811542e,PennController,39,0,trial_1_no_cue_DOWN,NULL,PennController,43,_Trial_,End,1648414319002,UVA,cong-right.png,1,1109,NULL
1648415356,ea4822a528ee3bb453e635d65811542e,PennController,76,0,trial_4_spatial_cue_DOWN,NULL,PennController,80,_Trial_,Start,1648414319004,UVA,incong-right.png,2,261,NULL
1648415356,ea4822a528ee3bb453e635d65811542e,PennController,76,0,trial_4_spatial_cue_DOWN,NULL,PennController,80,_Header_,Start,1648414319004,UVA,incong-right.png,2,261,NULL
1648415356,ea4822a528ee3bb453e635d65811542e,PennController,76,0,trial_4_spatial_cue_DOWN,NULL,PennController,80,_Header_,End,1648414319004,UVA,incong-right.png,2,261,NULL
1648415356,ea4822a528ee3bb453e635d65811542e,PennController,76,0,trial_4_spatial_cue_DOWN,NULL,Canvas,center,Print,NA,1648414320904,UVA,incong-right.png,2,261,NULL
1648415356,ea4822a528ee3bb453e635d65811542e,PennController,76,0,trial_4_spatial_cue_DOWN,NULL,Key,keypress1,PressedKey,S,1648414321167,UVA,incong-right.png,2,261,NULL
1648415356,ea4822a528ee3bb453e635d65811542e,PennController,76,0,trial_4_spatial_cue_DOWN,NULL,PennController,80,_Trial_,End,1648414323007,UVA,incong-right.png,2,261,NULL
1648415356,ea4822a528ee3bb453e635d65811542e,PennController,34,0,trial_1_no_cue_UP,NULL,PennController,38,_Trial_,Start,1648414323009,UVA,incong-right.png,2,479,NULL
1648415356,ea4822a528ee3bb453e635d65811542e,PennController,34,0,trial_1_no_cue_UP,NULL,PennController,38,_Header_,Start,1648414323009,UVA,incong-right.png,2,479,NULL
1648415356,ea4822a528ee3bb453e635d65811542e,PennController,34,0,trial_1_no_cue_UP,NULL,PennController,38,_Header_,End,1648414323009,UVA,incong-right.png,2,479,NULL
1648415356,ea4822a528ee3bb453e635d65811542e,PennController,34,0,trial_1_no_cue_UP,NULL,Canvas,center,Print,NA,1648414325025,UVA,incong-right.png,2,479,NULL
1648415356,ea4822a528ee3bb453e635d65811542e,PennController,34,0,trial_1_no_cue_UP,NULL,Key,keypress1,PressedKey,S,1648414325506,UVA,incong-right.png,2,479,NULL
1648415356,ea4822a528ee3bb453e635d65811542e,PennController,34,0,trial_1_no_cue_UP,NULL,PennController,38,_Trial_,End,1648414328011,UVA,incong-right.png,2,479,NULL
1648415356,ea4822a528ee3bb453e635d65811542e,PennController,80,0,trial_4_spatial_cue_DOWN,NULL,PennController,84,_Trial_,Start,1648414328013,UVA,neutral-left.png,6,199,NULL
1648415356,ea4822a528ee3bb453e635d65811542e,PennController,80,0,trial_4_spatial_cue_DOWN,NULL,PennController,84,_Header_,Start,1648414328013,UVA,neutral-left.png,6,199,NULL
1648415356,ea4822a528ee3bb453e635d65811542e,PennController,80,0,trial_4_spatial_cue_DOWN,NULL,PennController,84,_Header_,End,1648414328013,UVA,neutral-left.png,6,199,NULL
1648415356,ea4822a528ee3bb453e635d65811542e,PennController,80,0,trial_4_spatial_cue_DOWN,NULL,Canvas,center,Print,NA,1648414328981,UVA,neutral-left.png,6,199,NULL
1648415356,ea4822a528ee3bb453e635d65811542e,PennController,80,0,trial_4_spatial_cue_DOWN,NULL,Key,keypress1,PressedKey,S,1648414329182,UVA,neutral-left.png,6,199,NULL
1648415356,ea4822a528ee3bb453e635d65811542e,PennController,80,0,trial_4_spatial_cue_DOWN,NULL,PennController,84,_Trial_,End,1648414332015,UVA,neutral-left.png,6,199,NULL
1648415356,ea4822a528ee3bb453e635d65811542e,PennController,45,0,trial_2_center_cue_UP,NULL,PennController,49,_Trial_,Start,1648414332017,UVA,cong-right.png,1,384,NULL
1648415356,ea4822a528ee3bb453e635d65811542e,PennController,45,0,trial_2_center_cue_UP,NULL,PennController,49,_Header_,Start,1648414332017,UVA,cong-right.png,1,384,NULL
1648415356,ea4822a528ee3bb453e635d65811542e,PennController,45,0,trial_2_center_cue_UP,NULL,PennController,49,_Header_,End,1648414332017,UVA,cong-right.png,1,384,NULL
1648415356,ea4822a528ee3bb453e635d65811542e,PennController,45,0,trial_2_center_cue_UP,NULL,Canvas,center,Print,NA,1648414333473,UVA,cong-right.png,1,384,NULL
1648415356,ea4822a528ee3bb453e635d65811542e,PennController,45,0,trial_2_center_cue_UP,NULL,Key,keypress1,PressedKey,S,1648414333859,UVA,cong-right.png,1,384,NULL
1648415356,ea4822a528ee3bb453e635d65811542e,PennController,45,0,trial_2_center_cue_UP,NULL,PennController,49,_Trial_,End,1648414336022,UVA,cong-right.png,1,384,NULL
1648415356,ea4822a528ee3bb453e635d65811542e,PennController,52,0,trial_2_center_cue_DOWN,NULL,PennController,56,_Trial_,Start,1648414336024,UVA,incong-right.png,2,487,NULL
1648415356,ea4822a528ee3bb453e635d65811542e,PennController,52,0,trial_2_center_cue_DOWN,NULL,PennController,56,_Header_,Start,1648414336024,UVA,incong-right.png,2,487,NULL
1648415356,ea4822a528ee3bb453e635d65811542e,PennController,52,0,trial_2_center_cue_DOWN,NULL,PennController,56,_Header_,End,1648414336024,UVA,incong-right.png,2,487,NULL
1648415356,ea4822a528ee3bb453e635d65811542e,PennController,52,0,trial_2_center_cue_DOWN,NULL,Canvas,center,Print,NA,1648414337144,UVA,incong-right.png,2,487,NULL
1648415356,ea4822a528ee3bb453e635d65811542e,PennController,52,0,trial_2_center_cue_DOWN,NULL,Key,keypress1,PressedKey,K,1648414337633,UVA,incong-right.png,2,487,NULL
1648415356,ea4822a528ee3bb453e635d65811542e,PennController,52,0,trial_2_center_cue_DOWN,NULL,PennController,56,_Trial_,End,1648414340027,UVA,incong-right.png,2,487,NULL
1648415356,ea4822a528ee3bb453e635d65811542e,PennController,61,0,trial_3_double_cue_UP,NULL,PennController,65,_Trial_,Start,1648414340028,UVA,incong-left.png,5,458,NULL
1648415356,ea4822a528ee3bb453e635d65811542e,PennController,61,0,trial_3_double_cue_UP,NULL,PennController,65,_Header_,Start,1648414340028,UVA,incong-left.png,5,458,NULL
1648415356,ea4822a528ee3bb453e635d65811542e,PennController,61,0,trial_3_double_cue_UP,NULL,PennController,65,_Header_,End,1648414340028,UVA,incong-left.png,5,458,NULL
1648415356,ea4822a528ee3bb453e635d65811542e,PennController,61,0,trial_3_double_cue_UP,NULL,Canvas,center,Print,NA,1648414341628,UVA,incong-left.png,5,458,NULL
1648415356,ea4822a528ee3bb453e635d65811542e,PennController,61,0,trial_3_double_cue_UP,NULL,Key,keypress1,PressedKey,S,1648414342087,UVA,incong-left.png,5,458,NULL
1648415356,ea4822a528ee3bb453e635d65811542e,PennController,61,0,trial_3_double_cue_UP,NULL,PennController,65,_Trial_,End,1648414344032,UVA,incong-left.png,5,458,NULL
1648415356,ea4822a528ee3bb453e635d65811542e,PennController,51,0,trial_2_center_cue_DOWN,NULL,PennController,55,_Trial_,Start,1648414344035,UVA,cong-right.png,1,1697,NULL
1648415356,ea4822a528ee3bb453e635d65811542e,PennController,51,0,trial_2_center_cue_DOWN,NULL,PennController,55,_Header_,Start,1648414344035,UVA,cong-right.png,1,1697,NULL
1648415356,ea4822a528ee3bb453e635d65811542e,PennController,51,0,trial_2_center_cue_DOWN,NULL,PennController,55,_Header_,End,1648414344035,UVA,cong-right.png,1,1697,NULL
1648415356,ea4822a528ee3bb453e635d65811542e,PennController,51,0,trial_2_center_cue_DOWN,NULL,Canvas,center,Print,NA,1648414345701,UVA,cong-right.png,1,1697,NULL
1648415356,ea4822a528ee3bb453e635d65811542e,PennController,51,0,trial_2_center_cue_DOWN,NULL,Key,keypress1,Key,NA,Never,UVA,cong-right.png,1,1697,NULL
1648415356,ea4822a528ee3bb453e635d65811542e,PennController,51,0,trial_2_center_cue_DOWN,NULL,PennController,55,_Trial_,End,1648414348039,UVA,cong-right.png,1,1697,NULL
1648415356,ea4822a528ee3bb453e635d65811542e,PennController,60,0,trial_3_double_cue_UP,NULL,PennController,64,_Trial_,Start,1648414348041,UVA,cong-left.png,4,385,NULL
1648415356,ea4822a528ee3bb453e635d65811542e,PennController,60,0,trial_3_double_cue_UP,NULL,PennController,64,_Header_,Start,1648414348041,UVA,cong-left.png,4,385,NULL
1648415356,ea4822a528ee3bb453e635d65811542e,PennController,60,0,trial_3_double_cue_UP,NULL,PennController,64,_Header_,End,1648414348041,UVA,cong-left.png,4,385,NULL
1648415356,ea4822a528ee3bb453e635d65811542e,PennController,60,0,trial_3_double_cue_UP,NULL,Canvas,center,Print,NA,1648414348960,UVA,cong-left.png,4,385,NULL
1648415356,ea4822a528ee3bb453e635d65811542e,PennController,60,0,trial_3_double_cue_UP,NULL,Key,keypress1,PressedKey,S,1648414349346,UVA,cong-left.png,4,385,NULL
1648415356,ea4822a528ee3bb453e635d65811542e,PennController,60,0,trial_3_double_cue_UP,NULL,PennController,64,_Trial_,End,1648414352044,UVA,cong-left.png,4,385,NULL
1648415356,ea4822a528ee3bb453e635d65811542e,PennController,39,0,trial_1_no_cue_DOWN,NULL,PennController,43,_Trial_,Start,1648414352045,UVA,cong-right.png,1,510,NULL
1648415356,ea4822a528ee3bb453e635d65811542e,PennController,39,0,trial_1_no_cue_DOWN,NULL,PennController,43,_Header_,Start,1648414352045,UVA,cong-right.png,1,510,NULL
1648415356,ea4822a528ee3bb453e635d65811542e,PennController,39,0,trial_1_no_cue_DOWN,NULL,PennController,43,_Header_,End,1648414352045,UVA,cong-right.png,1,510,NULL
1648415356,ea4822a528ee3bb453e635d65811542e,PennController,39,0,trial_1_no_cue_DOWN,NULL,Canvas,center,Print,NA,1648414353894,UVA,cong-right.png,1,510,NULL
1648415356,ea4822a528ee3bb453e635d65811542e,PennController,39,0,trial_1_no_cue_DOWN,NULL,Key,keypress1,PressedKey,S,1648414354406,UVA,cong-right.png,1,510,NULL
1648415356,ea4822a528ee3bb453e635d65811542e,PennController,39,0,trial_1_no_cue_DOWN,NULL,PennController,43,_Trial_,End,1648414356910,UVA,cong-right.png,1,510,NULL
1648415356,ea4822a528ee3bb453e635d65811542e,PennController,34,0,trial_1_no_cue_UP,NULL,PennController,38,_Trial_,Start,1648414356912,UVA,incong-right.png,2,801,NULL
1648415356,ea4822a528ee3bb453e635d65811542e,PennController,34,0,trial_1_no_cue_UP,NULL,PennController,38,_Header_,Start,1648414356912,UVA,incong-right.png,2,801,NULL
1648415356,ea4822a528ee3bb453e635d65811542e,PennController,34,0,trial_1_no_cue_UP,NULL,PennController,38,_Header_,End,1648414356912,UVA,incong-right.png,2,801,NULL
1648415356,ea4822a528ee3bb453e635d65811542e,PennController,34,0,trial_1_no_cue_UP,NULL,Canvas,center,Print,NA,1648414358929,UVA,incong-right.png,2,801,NULL
1648415356,ea4822a528ee3bb453e635d65811542e,PennController,34,0,trial_1_no_cue_UP,NULL,Key,keypress1,PressedKey,S,1648414359732,UVA,incong-right.png,2,801,NULL
1648415356,ea4822a528ee3bb453e635d65811542e,PennController,34,0,trial_1_no_cue_UP,NULL,PennController,38,_Trial_,End,1648414362235,UVA,incong-right.png,2,801,NULL
1648415356,ea4822a528ee3bb453e635d65811542e,PennController,72,0,trial_4_spatial_cue_UP,NULL,PennController,76,_Trial_,Start,1648414362237,UVA,cong-left.png,4,374,NULL
1648415356,ea4822a528ee3bb453e635d65811542e,PennController,72,0,trial_4_spatial_cue_UP,NULL,PennController,76,_Header_,Start,1648414362237,UVA,cong-left.png,4,374,NULL
1648415356,ea4822a528ee3bb453e635d65811542e,PennController,72,0,trial_4_spatial_cue_UP,NULL,PennController,76,_Header_,End,1648414362237,UVA,cong-left.png,4,374,NULL
1648415356,ea4822a528ee3bb453e635d65811542e,PennController,72,0,trial_4_spatial_cue_UP,NULL,Canvas,center,Print,NA,1648414363438,UVA,cong-left.png,4,374,NULL
1648415356,ea4822a528ee3bb453e635d65811542e,PennController,72,0,trial_4_spatial_cue_UP,NULL,Key,keypress1,PressedKey,K,1648414363814,UVA,cong-left.png,4,374,NULL
1648415356,ea4822a528ee3bb453e635d65811542e,PennController,72,0,trial_4_spatial_cue_UP,NULL,PennController,76,_Trial_,End,1648414366241,UVA,cong-left.png,4,374,NULL
1648415356,ea4822a528ee3bb453e635d65811542e,PennController,46,0,trial_2_center_cue_UP,NULL,PennController,50,_Trial_,Start,1648414366243,UVA,incong-right.png,2,419,NULL
1648415356,ea4822a528ee3bb453e635d65811542e,PennController,46,0,trial_2_center_cue_UP,NULL,PennController,50,_Header_,Start,1648414366243,UVA,incong-right.png,2,419,NULL
1648415356,ea4822a528ee3bb453e635d65811542e,PennController,46,0,trial_2_center_cue_UP,NULL,PennController,50,_Header_,End,1648414366243,UVA,incong-right.png,2,419,NULL
1648415356,ea4822a528ee3bb453e635d65811542e,PennController,46,0,trial_2_center_cue_UP,NULL,Canvas,center,Print,NA,1648414367215,UVA,incong-right.png,2,419,NULL
1648415356,ea4822a528ee3bb453e635d65811542e,PennController,46,0,trial_2_center_cue_UP,NULL,Key,keypress1,PressedKey,S,1648414367636,UVA,incong-right.png,2,419,NULL
1648415356,ea4822a528ee3bb453e635d65811542e,PennController,46,0,trial_2_center_cue_UP,NULL,PennController,50,_Trial_,End,1648414370250,UVA,incong-right.png,2,419,NULL
1648415356,ea4822a528ee3bb453e635d65811542e,PennController,70,0,trial_4_spatial_cue_UP,NULL,PennController,74,_Trial_,Start,1648414370252,UVA,incong-right.png,2,1694,NULL
1648415356,ea4822a528ee3bb453e635d65811542e,PennController,70,0,trial_4_spatial_cue_UP,NULL,PennController,74,_Header_,Start,1648414370252,UVA,incong-right.png,2,1694,NULL
1648415356,ea4822a528ee3bb453e635d65811542e,PennController,70,0,trial_4_spatial_cue_UP,NULL,PennController,74,_Header_,End,1648414370252,UVA,incong-right.png,2,1694,NULL
1648415356,ea4822a528ee3bb453e635d65811542e,PennController,70,0,trial_4_spatial_cue_UP,NULL,Canvas,center,Print,NA,1648414371229,UVA,incong-right.png,2,1694,NULL
1648415356,ea4822a528ee3bb453e635d65811542e,PennController,70,0,trial_4_spatial_cue_UP,NULL,Key,keypress1,Key,NA,Never,UVA,incong-right.png,2,1694,NULL
1648415356,ea4822a528ee3bb453e635d65811542e,PennController,70,0,trial_4_spatial_cue_UP,NULL,PennController,74,_Trial_,End,1648414374257,UVA,incong-right.png,2,1694,NULL
1648415356,ea4822a528ee3bb453e635d65811542e,PennController,63,0,trial_3_double_cue_DOWN,NULL,PennController,67,_Trial_,Start,1648414374259,UVA,cong-right.png,1,1697,NULL
1648415356,ea4822a528ee3bb453e635d65811542e,PennController,63,0,trial_3_double_cue_DOWN,NULL,PennController,67,_Header_,Start,1648414374259,UVA,cong-right.png,1,1697,NULL
1648415356,ea4822a528ee3bb453e635d65811542e,PennController,63,0,trial_3_double_cue_DOWN,NULL,PennController,67,_Header_,End,1648414374259,UVA,cong-right.png,1,1697,NULL
1648415356,ea4822a528ee3bb453e635d65811542e,PennController,63,0,trial_3_double_cue_DOWN,NULL,Canvas,center,Print,NA,1648414375519,UVA,cong-right.png,1,1697,NULL
1648415356,ea4822a528ee3bb453e635d65811542e,PennController,63,0,trial_3_double_cue_DOWN,NULL,Key,keypress1,Key,NA,Never,UVA,cong-right.png,1,1697,NULL
1648415356,ea4822a528ee3bb453e635d65811542e,PennController,63,0,trial_3_double_cue_DOWN,NULL,PennController,67,_Trial_,End,1648414378264,UVA,cong-right.png,1,1697,NULL
1648415356,ea4822a528ee3bb453e635d65811542e,PennController,64,0,trial_3_double_cue_DOWN,NULL,PennController,68,_Trial_,Start,1648414378266,UVA,incong-right.png,2,1695,NULL
1648415356,ea4822a528ee3bb453e635d65811542e,PennController,64,0,trial_3_double_cue_DOWN,NULL,PennController,68,_Header_,Start,1648414378267,UVA,incong-right.png,2,1695,NULL
1648415356,ea4822a528ee3bb453e635d65811542e,PennController,64,0,trial_3_double_cue_DOWN,NULL,PennController,68,_Header_,End,1648414378267,UVA,incong-right.png,2,1695,NULL
1648415356,ea4822a528ee3bb453e635d65811542e,PennController,64,0,trial_3_double_cue_DOWN,NULL,Canvas,center,Print,NA,1648414379881,UVA,incong-right.png,2,1695,NULL
1648415356,ea4822a528ee3bb453e635d65811542e,PennController,64,0,trial_3_double_cue_DOWN,NULL,Key,keypress1,Key,NA,Never,UVA,incong-right.png,2,1695,NULL
1648415356,ea4822a528ee3bb453e635d65811542e,PennController,64,0,trial_3_double_cue_DOWN,NULL,PennController,68,_Trial_,End,1648414382272,UVA,incong-right.png,2,1695,NULL
1648415356,ea4822a528ee3bb453e635d65811542e,PennController,44,0,trial_1_no_cue_DOWN,NULL,PennController,48,_Trial_,Start,1648414382274,UVA,neutral-left.png,6,1698,NULL
1648415356,ea4822a528ee3bb453e635d65811542e,PennController,44,0,trial_1_no_cue_DOWN,NULL,PennController,48,_Header_,Start,1648414382274,UVA,neutral-left.png,6,1698,NULL
1648415356,ea4822a528ee3bb453e635d65811542e,PennController,44,0,trial_1_no_cue_DOWN,NULL,PennController,48,_Header_,End,1648414382274,UVA,neutral-left.png,6,1698,NULL
1648415356,ea4822a528ee3bb453e635d65811542e,PennController,44,0,trial_1_no_cue_DOWN,NULL,Canvas,center,Print,NA,1648414383554,UVA,neutral-left.png,6,1698,NULL
1648415356,ea4822a528ee3bb453e635d65811542e,PennController,44,0,trial_1_no_cue_DOWN,NULL,Key,keypress1,Key,NA,Never,UVA,neutral-left.png,6,1698,NULL
1648415356,ea4822a528ee3bb453e635d65811542e,PennController,44,0,trial_1_no_cue_DOWN,NULL,PennController,48,_Trial_,End,1648414387760,UVA,neutral-left.png,6,1698,NULL
1648415356,ea4822a528ee3bb453e635d65811542e,PennController,77,0,trial_4_spatial_cue_DOWN,NULL,PennController,81,_Trial_,Start,1648414387762,UVA,neutral-right.png,3,468,NULL
1648415356,ea4822a528ee3bb453e635d65811542e,PennController,77,0,trial_4_spatial_cue_DOWN,NULL,PennController,81,_Header_,Start,1648414387762,UVA,neutral-right.png,3,468,NULL
1648415356,ea4822a528ee3bb453e635d65811542e,PennController,77,0,trial_4_spatial_cue_DOWN,NULL,PennController,81,_Header_,End,1648414387762,UVA,neutral-right.png,3,468,NULL
1648415356,ea4822a528ee3bb453e635d65811542e,PennController,77,0,trial_4_spatial_cue_DOWN,NULL,Canvas,center,Print,NA,1648414389573,UVA,neutral-right.png,3,468,NULL
1648415356,ea4822a528ee3bb453e635d65811542e,PennController,77,0,trial_4_spatial_cue_DOWN,NULL,Key,keypress1,PressedKey,S,1648414390043,UVA,neutral-right.png,3,468,NULL
1648415356,ea4822a528ee3bb453e635d65811542e,PennController,77,0,trial_4_spatial_cue_DOWN,NULL,PennController,81,_Trial_,End,1648414391764,UVA,neutral-right.png,3,468,NULL
1648415356,ea4822a528ee3bb453e635d65811542e,PennController,33,0,trial_1_no_cue_UP,NULL,PennController,37,_Trial_,Start,1648414391766,UVA,cong-right.png,1,502,NULL
1648415356,ea4822a528ee3bb453e635d65811542e,PennController,33,0,trial_1_no_cue_UP,NULL,PennController,37,_Header_,Start,1648414391766,UVA,cong-right.png,1,502,NULL
1648415356,ea4822a528ee3bb453e635d65811542e,PennController,33,0,trial_1_no_cue_UP,NULL,PennController,37,_Header_,End,1648414391766,UVA,cong-right.png,1,502,NULL
1648415356,ea4822a528ee3bb453e635d65811542e,PennController,33,0,trial_1_no_cue_UP,NULL,Canvas,center,Print,NA,1648414393563,UVA,cong-right.png,1,502,NULL
1648415356,ea4822a528ee3bb453e635d65811542e,PennController,33,0,trial_1_no_cue_UP,NULL,Key,keypress1,PressedKey,K,1648414394065,UVA,cong-right.png,1,502,NULL
1648415356,ea4822a528ee3bb453e635d65811542e,PennController,33,0,trial_1_no_cue_UP,NULL,PennController,37,_Trial_,End,1648414396569,UVA,cong-right.png,1,502,NULL
1648415356,ea4822a528ee3bb453e635d65811542e,PennController,78,0,trial_4_spatial_cue_DOWN,NULL,PennController,82,_Trial_,Start,1648414396571,UVA,cong-left.png,4,585,NULL
1648415356,ea4822a528ee3bb453e635d65811542e,PennController,78,0,trial_4_spatial_cue_DOWN,NULL,PennController,82,_Header_,Start,1648414396571,UVA,cong-left.png,4,585,NULL
1648415356,ea4822a528ee3bb453e635d65811542e,PennController,78,0,trial_4_spatial_cue_DOWN,NULL,PennController,82,_Header_,End,1648414396571,UVA,cong-left.png,4,585,NULL
1648415356,ea4822a528ee3bb453e635d65811542e,PennController,78,0,trial_4_spatial_cue_DOWN,NULL,Canvas,center,Print,NA,1648414397696,UVA,cong-left.png,4,585,NULL
1648415356,ea4822a528ee3bb453e635d65811542e,PennController,78,0,trial_4_spatial_cue_DOWN,NULL,Key,keypress1,PressedKey,S,1648414398282,UVA,cong-left.png,4,585,NULL
1648415356,ea4822a528ee3bb453e635d65811542e,PennController,78,0,trial_4_spatial_cue_DOWN,NULL,PennController,82,_Trial_,End,1648414400574,UVA,cong-left.png,4,585,NULL
1648415356,ea4822a528ee3bb453e635d65811542e,PennController,48,0,trial_2_center_cue_UP,NULL,PennController,52,_Trial_,Start,1648414400576,UVA,cong-left.png,4,1697,NULL
1648415356,ea4822a528ee3bb453e635d65811542e,PennController,48,0,trial_2_center_cue_UP,NULL,PennController,52,_Header_,Start,1648414400576,UVA,cong-left.png,4,1697,NULL
1648415356,ea4822a528ee3bb453e635d65811542e,PennController,48,0,trial_2_center_cue_UP,NULL,PennController,52,_Header_,End,1648414400577,UVA,cong-left.png,4,1697,NULL
1648415356,ea4822a528ee3bb453e635d65811542e,PennController,48,0,trial_2_center_cue_UP,NULL,Canvas,center,Print,NA,1648414402138,UVA,cong-left.png,4,1697,NULL
1648415356,ea4822a528ee3bb453e635d65811542e,PennController,48,0,trial_2_center_cue_UP,NULL,Key,keypress1,Key,NA,Never,UVA,cong-left.png,4,1697,NULL
1648415356,ea4822a528ee3bb453e635d65811542e,PennController,48,0,trial_2_center_cue_UP,NULL,PennController,52,_Trial_,End,1648414404580,UVA,cong-left.png,4,1697,NULL
1648415356,ea4822a528ee3bb453e635d65811542e,PennController,51,0,trial_2_center_cue_DOWN,NULL,PennController,55,_Trial_,Start,1648414404582,UVA,cong-right.png,1,239,NULL
1648415356,ea4822a528ee3bb453e635d65811542e,PennController,51,0,trial_2_center_cue_DOWN,NULL,PennController,55,_Header_,Start,1648414404582,UVA,cong-right.png,1,239,NULL
1648415356,ea4822a528ee3bb453e635d65811542e,PennController,51,0,trial_2_center_cue_DOWN,NULL,PennController,55,_Header_,End,1648414404582,UVA,cong-right.png,1,239,NULL
1648415356,ea4822a528ee3bb453e635d65811542e,PennController,51,0,trial_2_center_cue_DOWN,NULL,Canvas,center,Print,NA,1648414406249,UVA,cong-right.png,1,239,NULL
1648415356,ea4822a528ee3bb453e635d65811542e,PennController,51,0,trial_2_center_cue_DOWN,NULL,Key,keypress1,PressedKey,K,1648414406490,UVA,cong-right.png,1,239,NULL
1648415356,ea4822a528ee3bb453e635d65811542e,PennController,51,0,trial_2_center_cue_DOWN,NULL,PennController,55,_Trial_,End,1648414408585,UVA,cong-right.png,1,239,NULL
1648415356,ea4822a528ee3bb453e635d65811542e,PennController,60,0,trial_3_double_cue_UP,NULL,PennController,64,_Trial_,Start,1648414408587,UVA,cong-left.png,4,1697,NULL
1648415356,ea4822a528ee3bb453e635d65811542e,PennController,60,0,trial_3_double_cue_UP,NULL,PennController,64,_Header_,Start,1648414408587,UVA,cong-left.png,4,1697,NULL
1648415356,ea4822a528ee3bb453e635d65811542e,PennController,60,0,trial_3_double_cue_UP,NULL,PennController,64,_Header_,End,1648414408587,UVA,cong-left.png,4,1697,NULL
1648415356,ea4822a528ee3bb453e635d65811542e,PennController,60,0,trial_3_double_cue_UP,NULL,Canvas,center,Print,NA,1648414409510,UVA,cong-left.png,4,1697,NULL
1648415356,ea4822a528ee3bb453e635d65811542e,PennController,60,0,trial_3_double_cue_UP,NULL,Key,keypress1,Key,NA,Never,UVA,cong-left.png,4,1697,NULL
1648415356,ea4822a528ee3bb453e635d65811542e,PennController,60,0,trial_3_double_cue_UP,NULL,PennController,64,_Trial_,End,1648414412589,UVA,cong-left.png,4,1697,NULL
1648415356,ea4822a528ee3bb453e635d65811542e,PennController,55,0,trial_2_center_cue_DOWN,NULL,PennController,59,_Trial_,Start,1648414412591,UVA,incong-left.png,5,281,NULL
1648415356,ea4822a528ee3bb453e635d65811542e,PennController,55,0,trial_2_center_cue_DOWN,NULL,PennController,59,_Header_,Start,1648414412591,UVA,incong-left.png,5,281,NULL
1648415356,ea4822a528ee3bb453e635d65811542e,PennController,55,0,trial_2_center_cue_DOWN,NULL,PennController,59,_Header_,End,1648414412591,UVA,incong-left.png,5,281,NULL
1648415356,ea4822a528ee3bb453e635d65811542e,PennController,55,0,trial_2_center_cue_DOWN,NULL,Canvas,center,Print,NA,1648414413569,UVA,incong-left.png,5,281,NULL
1648415356,ea4822a528ee3bb453e635d65811542e,PennController,55,0,trial_2_center_cue_DOWN,NULL,Key,keypress1,PressedKey,K,1648414413852,UVA,incong-left.png,5,281,NULL
1648415356,ea4822a528ee3bb453e635d65811542e,PennController,55,0,trial_2_center_cue_DOWN,NULL,PennController,59,_Trial_,End,1648414416594,UVA,incong-left.png,5,281,NULL
1648415356,ea4822a528ee3bb453e635d65811542e,PennController,58,0,trial_3_double_cue_UP,NULL,PennController,62,_Trial_,Start,1648414416598,UVA,incong-right.png,2,1698,NULL
1648415356,ea4822a528ee3bb453e635d65811542e,PennController,58,0,trial_3_double_cue_UP,NULL,PennController,62,_Header_,Start,1648414416598,UVA,incong-right.png,2,1698,NULL
1648415356,ea4822a528ee3bb453e635d65811542e,PennController,58,0,trial_3_double_cue_UP,NULL,PennController,62,_Header_,End,1648414416598,UVA,incong-right.png,2,1698,NULL
1648415356,ea4822a528ee3bb453e635d65811542e,PennController,58,0,trial_3_double_cue_UP,NULL,Canvas,center,Print,NA,1648414418640,UVA,incong-right.png,2,1698,NULL
1648415356,ea4822a528ee3bb453e635d65811542e,PennController,58,0,trial_3_double_cue_UP,NULL,Key,keypress1,Key,NA,Never,UVA,incong-right.png,2,1698,NULL
1648415356,ea4822a528ee3bb453e635d65811542e,PennController,58,0,trial_3_double_cue_UP,NULL,PennController,62,_Trial_,End,1648414420599,UVA,incong-right.png,2,1698,NULL
1648415356,ea4822a528ee3bb453e635d65811542e,PennController,44,0,trial_1_no_cue_DOWN,NULL,PennController,48,_Trial_,Start,1648414420602,UVA,neutral-left.png,6,604,NULL
1648415356,ea4822a528ee3bb453e635d65811542e,PennController,44,0,trial_1_no_cue_DOWN,NULL,PennController,48,_Header_,Start,1648414420602,UVA,neutral-left.png,6,604,NULL
1648415356,ea4822a528ee3bb453e635d65811542e,PennController,44,0,trial_1_no_cue_DOWN,NULL,PennController,48,_Header_,End,1648414420602,UVA,neutral-left.png,6,604,NULL
1648415356,ea4822a528ee3bb453e635d65811542e,PennController,44,0,trial_1_no_cue_DOWN,NULL,Canvas,center,Print,NA,1648414421881,UVA,neutral-left.png,6,604,NULL
1648415356,ea4822a528ee3bb453e635d65811542e,PennController,44,0,trial_1_no_cue_DOWN,NULL,Key,keypress1,PressedKey,S,1648414422487,UVA,neutral-left.png,6,604,NULL
1648415356,ea4822a528ee3bb453e635d65811542e,PennController,44,0,trial_1_no_cue_DOWN,NULL,PennController,48,_Trial_,End,1648414424990,UVA,neutral-left.png,6,604,NULL
1648415356,ea4822a528ee3bb453e635d65811542e,PennController,33,0,trial_1_no_cue_UP,NULL,PennController,37,_Trial_,Start,1648414424992,UVA,cong-right.png,1,563,NULL
1648415356,ea4822a528ee3bb453e635d65811542e,PennController,33,0,trial_1_no_cue_UP,NULL,PennController,37,_Header_,Start,1648414424992,UVA,cong-right.png,1,563,NULL
1648415356,ea4822a528ee3bb453e635d65811542e,PennController,33,0,trial_1_no_cue_UP,NULL,PennController,37,_Header_,End,1648414424992,UVA,cong-right.png,1,563,NULL
1648415356,ea4822a528ee3bb453e635d65811542e,PennController,33,0,trial_1_no_cue_UP,NULL,Canvas,center,Print,NA,1648414426791,UVA,cong-right.png,1,563,NULL
1648415356,ea4822a528ee3bb453e635d65811542e,PennController,33,0,trial_1_no_cue_UP,NULL,Key,keypress1,PressedKey,K,1648414427355,UVA,cong-right.png,1,563,NULL
1648415356,ea4822a528ee3bb453e635d65811542e,PennController,33,0,trial_1_no_cue_UP,NULL,PennController,37,_Trial_,End,1648414429859,UVA,cong-right.png,1,563,NULL
1648415356,ea4822a528ee3bb453e635d65811542e,PennController,69,0,trial_4_spatial_cue_UP,NULL,PennController,73,_Trial_,Start,1648414429861,UVA,cong-right.png,1,897,NULL
1648415356,ea4822a528ee3bb453e635d65811542e,PennController,69,0,trial_4_spatial_cue_UP,NULL,PennController,73,_Header_,Start,1648414429861,UVA,cong-right.png,1,897,NULL
1648415356,ea4822a528ee3bb453e635d65811542e,PennController,69,0,trial_4_spatial_cue_UP,NULL,PennController,73,_Header_,End,1648414429861,UVA,cong-right.png,1,897,NULL
1648415356,ea4822a528ee3bb453e635d65811542e,PennController,69,0,trial_4_spatial_cue_UP,NULL,Canvas,center,Print,NA,1648414431482,UVA,cong-right.png,1,897,NULL
1648415356,ea4822a528ee3bb453e635d65811542e,PennController,69,0,trial_4_spatial_cue_UP,NULL,Key,keypress1,PressedKey,S,1648414432380,UVA,cong-right.png,1,897,NULL
1648415356,ea4822a528ee3bb453e635d65811542e,PennController,69,0,trial_4_spatial_cue_UP,NULL,PennController,73,_Trial_,End,1648414433862,UVA,cong-right.png,1,897,NULL
1648415356,ea4822a528ee3bb453e635d65811542e,PennController,47,0,trial_2_center_cue_UP,NULL,PennController,51,_Trial_,Start,1648414433864,UVA,neutral-right.png,3,1697,NULL
1648415356,ea4822a528ee3bb453e635d65811542e,PennController,47,0,trial_2_center_cue_UP,NULL,PennController,51,_Header_,Start,1648414433864,UVA,neutral-right.png,3,1697,NULL
1648415356,ea4822a528ee3bb453e635d65811542e,PennController,47,0,trial_2_center_cue_UP,NULL,PennController,51,_Header_,End,1648414433864,UVA,neutral-right.png,3,1697,NULL
1648415356,ea4822a528ee3bb453e635d65811542e,PennController,47,0,trial_2_center_cue_UP,NULL,Canvas,center,Print,NA,1648414434944,UVA,neutral-right.png,3,1697,NULL
1648415356,ea4822a528ee3bb453e635d65811542e,PennController,47,0,trial_2_center_cue_UP,NULL,Key,keypress1,Key,NA,Never,UVA,neutral-right.png,3,1697,NULL
1648415356,ea4822a528ee3bb453e635d65811542e,PennController,47,0,trial_2_center_cue_UP,NULL,PennController,51,_Trial_,End,1648414437869,UVA,neutral-right.png,3,1697,NULL
1648415356,ea4822a528ee3bb453e635d65811542e,PennController,71,0,trial_4_spatial_cue_UP,NULL,PennController,75,_Trial_,Start,1648414437871,UVA,neutral-right.png,3,906,NULL
1648415356,ea4822a528ee3bb453e635d65811542e,PennController,71,0,trial_4_spatial_cue_UP,NULL,PennController,75,_Header_,Start,1648414437871,UVA,neutral-right.png,3,906,NULL
1648415356,ea4822a528ee3bb453e635d65811542e,PennController,71,0,trial_4_spatial_cue_UP,NULL,PennController,75,_Header_,End,1648414437871,UVA,neutral-right.png,3,906,NULL
1648415356,ea4822a528ee3bb453e635d65811542e,PennController,71,0,trial_4_spatial_cue_UP,NULL,Canvas,center,Print,NA,1648414439356,UVA,neutral-right.png,3,906,NULL
1648415356,ea4822a528ee3bb453e635d65811542e,PennController,71,0,trial_4_spatial_cue_UP,NULL,Key,keypress1,PressedKey,K,1648414440263,UVA,neutral-right.png,3,906,NULL
1648415356,ea4822a528ee3bb453e635d65811542e,PennController,71,0,trial_4_spatial_cue_UP,NULL,PennController,75,_Trial_,End,1648414441874,UVA,neutral-right.png,3,906,NULL
1648415356,ea4822a528ee3bb453e635d65811542e,PennController,66,0,trial_3_double_cue_DOWN,NULL,PennController,70,_Trial_,Start,1648414441876,UVA,cong-left.png,4,548,NULL
1648415356,ea4822a528ee3bb453e635d65811542e,PennController,66,0,trial_3_double_cue_DOWN,NULL,PennController,70,_Header_,Start,1648414441876,UVA,cong-left.png,4,548,NULL
1648415356,ea4822a528ee3bb453e635d65811542e,PennController,66,0,trial_3_double_cue_DOWN,NULL,PennController,70,_Header_,End,1648414441876,UVA,cong-left.png,4,548,NULL
1648415356,ea4822a528ee3bb453e635d65811542e,PennController,66,0,trial_3_double_cue_DOWN,NULL,Canvas,center,Print,NA,1648414443204,UVA,cong-left.png,4,548,NULL
1648415356,ea4822a528ee3bb453e635d65811542e,PennController,66,0,trial_3_double_cue_DOWN,NULL,Key,keypress1,PressedKey,S,1648414443753,UVA,cong-left.png,4,548,NULL
1648415356,ea4822a528ee3bb453e635d65811542e,PennController,66,0,trial_3_double_cue_DOWN,NULL,PennController,70,_Trial_,End,1648414445880,UVA,cong-left.png,4,548,NULL
1648415356,ea4822a528ee3bb453e635d65811542e,PennController,63,0,trial_3_double_cue_DOWN,NULL,PennController,67,_Trial_,Start,1648414445882,UVA,cong-right.png,1,1696,NULL
1648415356,ea4822a528ee3bb453e635d65811542e,PennController,63,0,trial_3_double_cue_DOWN,NULL,PennController,67,_Header_,Start,1648414445882,UVA,cong-right.png,1,1696,NULL
1648415356,ea4822a528ee3bb453e635d65811542e,PennController,63,0,trial_3_double_cue_DOWN,NULL,PennController,67,_Header_,End,1648414445882,UVA,cong-right.png,1,1696,NULL
1648415356,ea4822a528ee3bb453e635d65811542e,PennController,63,0,trial_3_double_cue_DOWN,NULL,Canvas,center,Print,NA,1648414447136,UVA,cong-right.png,1,1696,NULL
1648415356,ea4822a528ee3bb453e635d65811542e,PennController,63,0,trial_3_double_cue_DOWN,NULL,Key,keypress1,Key,NA,Never,UVA,cong-right.png,1,1696,NULL
1648415356,ea4822a528ee3bb453e635d65811542e,PennController,63,0,trial_3_double_cue_DOWN,NULL,PennController,67,_Trial_,End,1648414449883,UVA,cong-right.png,1,1696,NULL
1648415356,ea4822a528ee3bb453e635d65811542e,PennController,42,0,trial_1_no_cue_DOWN,NULL,PennController,46,_Trial_,Start,1648414449885,UVA,cong-left.png,4,1697,NULL
1648415356,ea4822a528ee3bb453e635d65811542e,PennController,42,0,trial_1_no_cue_DOWN,NULL,PennController,46,_Header_,Start,1648414449885,UVA,cong-left.png,4,1697,NULL
1648415356,ea4822a528ee3bb453e635d65811542e,PennController,42,0,trial_1_no_cue_DOWN,NULL,PennController,46,_Header_,End,1648414449885,UVA,cong-left.png,4,1697,NULL
1648415356,ea4822a528ee3bb453e635d65811542e,PennController,42,0,trial_1_no_cue_DOWN,NULL,Canvas,center,Print,NA,1648414451788,UVA,cong-left.png,4,1697,NULL
1648415356,ea4822a528ee3bb453e635d65811542e,PennController,42,0,trial_1_no_cue_DOWN,NULL,Key,keypress1,Key,NA,Never,UVA,cong-left.png,4,1697,NULL
1648415356,ea4822a528ee3bb453e635d65811542e,PennController,42,0,trial_1_no_cue_DOWN,NULL,PennController,46,_Trial_,End,1648414455991,UVA,cong-left.png,4,1697,NULL
1648415356,ea4822a528ee3bb453e635d65811542e,PennController,80,0,trial_4_spatial_cue_DOWN,NULL,PennController,84,_Trial_,Start,1648414455994,UVA,neutral-left.png,6,1696,NULL
1648415356,ea4822a528ee3bb453e635d65811542e,PennController,80,0,trial_4_spatial_cue_DOWN,NULL,PennController,84,_Header_,Start,1648414455994,UVA,neutral-left.png,6,1696,NULL
1648415356,ea4822a528ee3bb453e635d65811542e,PennController,80,0,trial_4_spatial_cue_DOWN,NULL,PennController,84,_Header_,End,1648414455994,UVA,neutral-left.png,6,1696,NULL
1648415356,ea4822a528ee3bb453e635d65811542e,PennController,80,0,trial_4_spatial_cue_DOWN,NULL,Canvas,center,Print,NA,1648414456965,UVA,neutral-left.png,6,1696,NULL
1648415356,ea4822a528ee3bb453e635d65811542e,PennController,80,0,trial_4_spatial_cue_DOWN,NULL,Key,keypress1,Key,NA,Never,UVA,neutral-left.png,6,1696,NULL
