#
# Results on Wed, 23 Mar 2022 22:44:44 GMT
# USER AGENT: Mozilla/5.0 (Windows NT 10.0; Win64; x64) AppleWebKit/537.36 (KHTML, like Gecko) Chrome/99.0.4844.82 Safari/537.36
# Design number was non-random = 3
#
# Columns below this comment are as follows:
# 1. Results reception time.
# 2. MD5 hash of participant's IP address.
# 3. Controller name.
# 4. Order number of item.
# 5. Inner element number.
# 6. Label.
# 7. Latin Square Group.
# 8. PennElementType.
# 9. PennElementName.
# 10. Parameter.
# 11. Value.
# 12. EventTime.
# 13. id.
# 14. Comments.
1648075484,ea4822a528ee3bb453e635d65811542e,PennController,0,0,instructions_A,NULL,PennController,0,_Trial_,Start,1648074703815,CRYSTAL_5,NULL
1648075484,ea4822a528ee3bb453e635d65811542e,PennController,0,0,instructions_A,NULL,PennController,0,_Header_,Start,1648074703815,CRYSTAL_5,NULL
1648075484,ea4822a528ee3bb453e635d65811542e,PennController,0,0,instructions_A,NULL,PennController,0,_Header_,End,1648074703815,CRYSTAL_5,NULL
1648075484,ea4822a528ee3bb453e635d65811542e,PennController,0,0,instructions_A,NULL,PennController,0,_Trial_,End,1648074709028,CRYSTAL_5,NULL
1648075484,ea4822a528ee3bb453e635d65811542e,PennController,1,0,instructions_B,NULL,PennController,1,_Trial_,Start,1648074709031,CRYSTAL_5,NULL
1648075484,ea4822a528ee3bb453e635d65811542e,PennController,1,0,instructions_B,NULL,PennController,1,_Header_,Start,1648074709031,CRYSTAL_5,NULL
1648075484,ea4822a528ee3bb453e635d65811542e,PennController,1,0,instructions_B,NULL,PennController,1,_Header_,End,1648074709031,CRYSTAL_5,NULL
1648075484,ea4822a528ee3bb453e635d65811542e,PennController,1,0,instructions_B,NULL,PennController,1,_Trial_,End,1648074709920,CRYSTAL_5,NULL
1648075484,ea4822a528ee3bb453e635d65811542e,PennController,2,0,instructions_C,NULL,PennController,2,_Trial_,Start,1648074709921,CRYSTAL_5,NULL
1648075484,ea4822a528ee3bb453e635d65811542e,PennController,2,0,instructions_C,NULL,PennController,2,_Header_,Start,1648074709921,CRYSTAL_5,NULL
1648075484,ea4822a528ee3bb453e635d65811542e,PennController,2,0,instructions_C,NULL,PennController,2,_Header_,End,1648074709921,CRYSTAL_5,NULL
1648075484,ea4822a528ee3bb453e635d65811542e,PennController,2,0,instructions_C,NULL,PennController,2,_Trial_,End,1648074710846,CRYSTAL_5,NULL
1648075484,ea4822a528ee3bb453e635d65811542e,PennController,3,0,instructions_D,NULL,PennController,3,_Trial_,Start,1648074710847,CRYSTAL_5,NULL
1648075484,ea4822a528ee3bb453e635d65811542e,PennController,3,0,instructions_D,NULL,PennController,3,_Header_,Start,1648074710847,CRYSTAL_5,NULL
1648075484,ea4822a528ee3bb453e635d65811542e,PennController,3,0,instructions_D,NULL,PennController,3,_Header_,End,1648074710847,CRYSTAL_5,NULL
1648075484,ea4822a528ee3bb453e635d65811542e,PennController,3,0,instructions_D,NULL,PennController,3,_Trial_,End,1648074711458,CRYSTAL_5,NULL
1648075484,ea4822a528ee3bb453e635d65811542e,PennController,4,0,instructions_Extra,NULL,PennController,4,_Trial_,Start,1648074711459,CRYSTAL_5,NULL
1648075484,ea4822a528ee3bb453e635d65811542e,PennController,4,0,instructions_Extra,NULL,PennController,4,_Header_,Start,1648074711459,CRYSTAL_5,NULL
1648075484,ea4822a528ee3bb453e635d65811542e,PennController,4,0,instructions_Extra,NULL,PennController,4,_Header_,End,1648074711459,CRYSTAL_5,NULL
1648075484,ea4822a528ee3bb453e635d65811542e,PennController,4,0,instructions_Extra,NULL,PennController,4,_Trial_,End,1648074712010,CRYSTAL_5,NULL
1648075484,ea4822a528ee3bb453e635d65811542e,PennController,5,0,keyboard_warning,NULL,PennController,5,_Trial_,Start,1648074712011,CRYSTAL_5,NULL
1648075484,ea4822a528ee3bb453e635d65811542e,PennController,5,0,keyboard_warning,NULL,PennController,5,_Header_,Start,1648074712011,CRYSTAL_5,NULL
1648075484,ea4822a528ee3bb453e635d65811542e,PennController,5,0,keyboard_warning,NULL,PennController,5,_Header_,End,1648074712012,CRYSTAL_5,NULL
1648075484,ea4822a528ee3bb453e635d65811542e,PennController,5,0,keyboard_warning,NULL,PennController,5,_Trial_,End,1648074713512,CRYSTAL_5,NULL
1648075484,ea4822a528ee3bb453e635d65811542e,PennController,6,0,p_trial_1_no_cue_UP,NULL,PennController,12,_Trial_,Start,1648074713513,CRYSTAL_5,NULL
1648075484,ea4822a528ee3bb453e635d65811542e,PennController,6,0,p_trial_1_no_cue_UP,NULL,PennController,12,_Header_,Start,1648074713513,CRYSTAL_5,NULL
1648075484,ea4822a528ee3bb453e635d65811542e,PennController,6,0,p_trial_1_no_cue_UP,NULL,PennController,12,_Header_,End,1648074713513,CRYSTAL_5,NULL
1648075484,ea4822a528ee3bb453e635d65811542e,PennController,6,0,p_trial_1_no_cue_UP,NULL,PennController,12,_Trial_,End,1648074719518,CRYSTAL_5,NULL
1648075484,ea4822a528ee3bb453e635d65811542e,PennController,10,0,p_trial_1_no_cue_DOWN,NULL,PennController,16,_Trial_,Start,1648074719520,CRYSTAL_5,NULL
1648075484,ea4822a528ee3bb453e635d65811542e,PennController,10,0,p_trial_1_no_cue_DOWN,NULL,PennController,16,_Header_,Start,1648074719520,CRYSTAL_5,NULL
1648075484,ea4822a528ee3bb453e635d65811542e,PennController,10,0,p_trial_1_no_cue_DOWN,NULL,PennController,16,_Header_,End,1648074719520,CRYSTAL_5,NULL
1648075484,ea4822a528ee3bb453e635d65811542e,PennController,10,0,p_trial_1_no_cue_DOWN,NULL,PennController,16,_Trial_,End,1648074725524,CRYSTAL_5,NULL
1648075484,ea4822a528ee3bb453e635d65811542e,PennController,24,0,p_trial_4_spatial_cue_UP,NULL,PennController,30,_Trial_,Start,1648074725526,CRYSTAL_5,NULL
1648075484,ea4822a528ee3bb453e635d65811542e,PennController,24,0,p_trial_4_spatial_cue_UP,NULL,PennController,30,_Header_,Start,1648074725526,CRYSTAL_5,NULL
1648075484,ea4822a528ee3bb453e635d65811542e,PennController,24,0,p_trial_4_spatial_cue_UP,NULL,PennController,30,_Header_,End,1648074725527,CRYSTAL_5,NULL
1648075484,ea4822a528ee3bb453e635d65811542e,PennController,24,0,p_trial_4_spatial_cue_UP,NULL,PennController,30,_Trial_,End,1648074731529,CRYSTAL_5,NULL
1648075484,ea4822a528ee3bb453e635d65811542e,PennController,28,0,p_trial_4_spatial_cue_DOWN,NULL,PennController,34,_Trial_,Start,1648074731532,CRYSTAL_5,NULL
1648075484,ea4822a528ee3bb453e635d65811542e,PennController,28,0,p_trial_4_spatial_cue_DOWN,NULL,PennController,34,_Header_,Start,1648074731532,CRYSTAL_5,NULL
1648075484,ea4822a528ee3bb453e635d65811542e,PennController,28,0,p_trial_4_spatial_cue_DOWN,NULL,PennController,34,_Header_,End,1648074731532,CRYSTAL_5,NULL
1648075484,ea4822a528ee3bb453e635d65811542e,PennController,28,0,p_trial_4_spatial_cue_DOWN,NULL,PennController,34,_Trial_,End,1648074737532,CRYSTAL_5,NULL
1648075484,ea4822a528ee3bb453e635d65811542e,PennController,12,0,p_trial_2_center_cue_UP,NULL,PennController,18,_Trial_,Start,1648074737533,CRYSTAL_5,NULL
1648075484,ea4822a528ee3bb453e635d65811542e,PennController,12,0,p_trial_2_center_cue_UP,NULL,PennController,18,_Header_,Start,1648074737533,CRYSTAL_5,NULL
1648075484,ea4822a528ee3bb453e635d65811542e,PennController,12,0,p_trial_2_center_cue_UP,NULL,PennController,18,_Header_,End,1648074737533,CRYSTAL_5,NULL
1648075484,ea4822a528ee3bb453e635d65811542e,PennController,12,0,p_trial_2_center_cue_UP,NULL,PennController,18,_Trial_,End,1648074743538,CRYSTAL_5,NULL
1648075484,ea4822a528ee3bb453e635d65811542e,PennController,20,0,p_trial_3_double_cue_UP,NULL,PennController,26,_Trial_,Start,1648074743539,CRYSTAL_5,NULL
1648075484,ea4822a528ee3bb453e635d65811542e,PennController,20,0,p_trial_3_double_cue_UP,NULL,PennController,26,_Header_,Start,1648074743539,CRYSTAL_5,NULL
1648075484,ea4822a528ee3bb453e635d65811542e,PennController,20,0,p_trial_3_double_cue_UP,NULL,PennController,26,_Header_,End,1648074743539,CRYSTAL_5,NULL
1648075484,ea4822a528ee3bb453e635d65811542e,PennController,20,0,p_trial_3_double_cue_UP,NULL,PennController,26,_Trial_,End,1648074749543,CRYSTAL_5,NULL
1648075484,ea4822a528ee3bb453e635d65811542e,PennController,21,0,p_trial_3_double_cue_DOWN,NULL,PennController,27,_Trial_,Start,1648074749544,CRYSTAL_5,NULL
1648075484,ea4822a528ee3bb453e635d65811542e,PennController,21,0,p_trial_3_double_cue_DOWN,NULL,PennController,27,_Header_,Start,1648074749544,CRYSTAL_5,NULL
1648075484,ea4822a528ee3bb453e635d65811542e,PennController,21,0,p_trial_3_double_cue_DOWN,NULL,PennController,27,_Header_,End,1648074749544,CRYSTAL_5,NULL
1648075484,ea4822a528ee3bb453e635d65811542e,PennController,21,0,p_trial_3_double_cue_DOWN,NULL,PennController,27,_Trial_,End,1648074755548,CRYSTAL_5,NULL
1648075484,ea4822a528ee3bb453e635d65811542e,PennController,17,0,p_trial_2_center_cue_DOWN,NULL,PennController,23,_Trial_,Start,1648074755551,CRYSTAL_5,NULL
1648075484,ea4822a528ee3bb453e635d65811542e,PennController,17,0,p_trial_2_center_cue_DOWN,NULL,PennController,23,_Header_,Start,1648074755551,CRYSTAL_5,NULL
1648075484,ea4822a528ee3bb453e635d65811542e,PennController,17,0,p_trial_2_center_cue_DOWN,NULL,PennController,23,_Header_,End,1648074755551,CRYSTAL_5,NULL
1648075484,ea4822a528ee3bb453e635d65811542e,PennController,17,0,p_trial_2_center_cue_DOWN,NULL,PennController,23,_Trial_,End,1648074761557,CRYSTAL_5,NULL
1648075484,ea4822a528ee3bb453e635d65811542e,PennController,8,0,p_trial_1_no_cue_UP,NULL,PennController,14,_Trial_,Start,1648074761559,CRYSTAL_5,NULL
1648075484,ea4822a528ee3bb453e635d65811542e,PennController,8,0,p_trial_1_no_cue_UP,NULL,PennController,14,_Header_,Start,1648074761559,CRYSTAL_5,NULL
1648075484,ea4822a528ee3bb453e635d65811542e,PennController,8,0,p_trial_1_no_cue_UP,NULL,PennController,14,_Header_,End,1648074761559,CRYSTAL_5,NULL
1648075484,ea4822a528ee3bb453e635d65811542e,PennController,8,0,p_trial_1_no_cue_UP,NULL,PennController,14,_Trial_,End,1648074767564,CRYSTAL_5,NULL
1648075484,ea4822a528ee3bb453e635d65811542e,PennController,11,0,p_trial_1_no_cue_DOWN,NULL,PennController,17,_Trial_,Start,1648074767566,CRYSTAL_5,NULL
1648075484,ea4822a528ee3bb453e635d65811542e,PennController,11,0,p_trial_1_no_cue_DOWN,NULL,PennController,17,_Header_,Start,1648074767566,CRYSTAL_5,NULL
1648075484,ea4822a528ee3bb453e635d65811542e,PennController,11,0,p_trial_1_no_cue_DOWN,NULL,PennController,17,_Header_,End,1648074767567,CRYSTAL_5,NULL
1648075484,ea4822a528ee3bb453e635d65811542e,PennController,11,0,p_trial_1_no_cue_DOWN,NULL,PennController,17,_Trial_,End,1648074773572,CRYSTAL_5,NULL
1648075484,ea4822a528ee3bb453e635d65811542e,PennController,26,0,p_trial_4_spatial_cue_UP,NULL,PennController,32,_Trial_,Start,1648074773574,CRYSTAL_5,NULL
1648075484,ea4822a528ee3bb453e635d65811542e,PennController,26,0,p_trial_4_spatial_cue_UP,NULL,PennController,32,_Header_,Start,1648074773574,CRYSTAL_5,NULL
1648075484,ea4822a528ee3bb453e635d65811542e,PennController,26,0,p_trial_4_spatial_cue_UP,NULL,PennController,32,_Header_,End,1648074773574,CRYSTAL_5,NULL
1648075484,ea4822a528ee3bb453e635d65811542e,PennController,26,0,p_trial_4_spatial_cue_UP,NULL,PennController,32,_Trial_,End,1648074779578,CRYSTAL_5,NULL
1648075484,ea4822a528ee3bb453e635d65811542e,PennController,27,0,p_trial_4_spatial_cue_DOWN,NULL,PennController,33,_Trial_,Start,1648074779579,CRYSTAL_5,NULL
1648075484,ea4822a528ee3bb453e635d65811542e,PennController,27,0,p_trial_4_spatial_cue_DOWN,NULL,PennController,33,_Header_,Start,1648074779579,CRYSTAL_5,NULL
1648075484,ea4822a528ee3bb453e635d65811542e,PennController,27,0,p_trial_4_spatial_cue_DOWN,NULL,PennController,33,_Header_,End,1648074779579,CRYSTAL_5,NULL
1648075484,ea4822a528ee3bb453e635d65811542e,PennController,27,0,p_trial_4_spatial_cue_DOWN,NULL,PennController,33,_Trial_,End,1648074785584,CRYSTAL_5,NULL
1648075484,ea4822a528ee3bb453e635d65811542e,PennController,14,0,p_trial_2_center_cue_UP,NULL,PennController,20,_Trial_,Start,1648074785586,CRYSTAL_5,NULL
1648075484,ea4822a528ee3bb453e635d65811542e,PennController,14,0,p_trial_2_center_cue_UP,NULL,PennController,20,_Header_,Start,1648074785586,CRYSTAL_5,NULL
1648075484,ea4822a528ee3bb453e635d65811542e,PennController,14,0,p_trial_2_center_cue_UP,NULL,PennController,20,_Header_,End,1648074785586,CRYSTAL_5,NULL
1648075484,ea4822a528ee3bb453e635d65811542e,PennController,14,0,p_trial_2_center_cue_UP,NULL,PennController,20,_Trial_,End,1648074791589,CRYSTAL_5,NULL
1648075484,ea4822a528ee3bb453e635d65811542e,PennController,19,0,p_trial_3_double_cue_UP,NULL,PennController,25,_Trial_,Start,1648074791590,CRYSTAL_5,NULL
1648075484,ea4822a528ee3bb453e635d65811542e,PennController,19,0,p_trial_3_double_cue_UP,NULL,PennController,25,_Header_,Start,1648074791590,CRYSTAL_5,NULL
1648075484,ea4822a528ee3bb453e635d65811542e,PennController,19,0,p_trial_3_double_cue_UP,NULL,PennController,25,_Header_,End,1648074791591,CRYSTAL_5,NULL
1648075484,ea4822a528ee3bb453e635d65811542e,PennController,19,0,p_trial_3_double_cue_UP,NULL,PennController,25,_Trial_,End,1648074797594,CRYSTAL_5,NULL
1648075484,ea4822a528ee3bb453e635d65811542e,PennController,22,0,p_trial_3_double_cue_DOWN,NULL,PennController,28,_Trial_,Start,1648074797595,CRYSTAL_5,NULL
1648075484,ea4822a528ee3bb453e635d65811542e,PennController,22,0,p_trial_3_double_cue_DOWN,NULL,PennController,28,_Header_,Start,1648074797595,CRYSTAL_5,NULL
1648075484,ea4822a528ee3bb453e635d65811542e,PennController,22,0,p_trial_3_double_cue_DOWN,NULL,PennController,28,_Header_,End,1648074797595,CRYSTAL_5,NULL
1648075484,ea4822a528ee3bb453e635d65811542e,PennController,22,0,p_trial_3_double_cue_DOWN,NULL,PennController,28,_Trial_,End,1648074803600,CRYSTAL_5,NULL
1648075484,ea4822a528ee3bb453e635d65811542e,PennController,16,0,p_trial_2_center_cue_DOWN,NULL,PennController,22,_Trial_,Start,1648074803602,CRYSTAL_5,NULL
1648075484,ea4822a528ee3bb453e635d65811542e,PennController,16,0,p_trial_2_center_cue_DOWN,NULL,PennController,22,_Header_,Start,1648074803602,CRYSTAL_5,NULL
1648075484,ea4822a528ee3bb453e635d65811542e,PennController,16,0,p_trial_2_center_cue_DOWN,NULL,PennController,22,_Header_,End,1648074803602,CRYSTAL_5,NULL
1648075484,ea4822a528ee3bb453e635d65811542e,PennController,16,0,p_trial_2_center_cue_DOWN,NULL,PennController,22,_Trial_,End,1648074809604,CRYSTAL_5,NULL
1648075484,ea4822a528ee3bb453e635d65811542e,PennController,7,0,p_trial_1_no_cue_UP,NULL,PennController,13,_Trial_,Start,1648074809606,CRYSTAL_5,NULL
1648075484,ea4822a528ee3bb453e635d65811542e,PennController,7,0,p_trial_1_no_cue_UP,NULL,PennController,13,_Header_,Start,1648074809606,CRYSTAL_5,NULL
1648075484,ea4822a528ee3bb453e635d65811542e,PennController,7,0,p_trial_1_no_cue_UP,NULL,PennController,13,_Header_,End,1648074809606,CRYSTAL_5,NULL
1648075484,ea4822a528ee3bb453e635d65811542e,PennController,7,0,p_trial_1_no_cue_UP,NULL,PennController,13,_Trial_,End,1648074815611,CRYSTAL_5,NULL
1648075484,ea4822a528ee3bb453e635d65811542e,PennController,9,0,p_trial_1_no_cue_DOWN,NULL,PennController,15,_Trial_,Start,1648074815613,CRYSTAL_5,NULL
1648075484,ea4822a528ee3bb453e635d65811542e,PennController,9,0,p_trial_1_no_cue_DOWN,NULL,PennController,15,_Header_,Start,1648074815613,CRYSTAL_5,NULL
1648075484,ea4822a528ee3bb453e635d65811542e,PennController,9,0,p_trial_1_no_cue_DOWN,NULL,PennController,15,_Header_,End,1648074815614,CRYSTAL_5,NULL
1648075484,ea4822a528ee3bb453e635d65811542e,PennController,9,0,p_trial_1_no_cue_DOWN,NULL,PennController,15,_Trial_,End,1648074821618,CRYSTAL_5,NULL
1648075484,ea4822a528ee3bb453e635d65811542e,PennController,25,0,p_trial_4_spatial_cue_UP,NULL,PennController,31,_Trial_,Start,1648074821620,CRYSTAL_5,NULL
1648075484,ea4822a528ee3bb453e635d65811542e,PennController,25,0,p_trial_4_spatial_cue_UP,NULL,PennController,31,_Header_,Start,1648074821620,CRYSTAL_5,NULL
1648075484,ea4822a528ee3bb453e635d65811542e,PennController,25,0,p_trial_4_spatial_cue_UP,NULL,PennController,31,_Header_,End,1648074821621,CRYSTAL_5,NULL
1648075484,ea4822a528ee3bb453e635d65811542e,PennController,25,0,p_trial_4_spatial_cue_UP,NULL,PennController,31,_Trial_,End,1648074827625,CRYSTAL_5,NULL
1648075484,ea4822a528ee3bb453e635d65811542e,PennController,29,0,p_trial_4_spatial_cue_DOWN,NULL,PennController,35,_Trial_,Start,1648074827628,CRYSTAL_5,NULL
1648075484,ea4822a528ee3bb453e635d65811542e,PennController,29,0,p_trial_4_spatial_cue_DOWN,NULL,PennController,35,_Header_,Start,1648074827628,CRYSTAL_5,NULL
1648075484,ea4822a528ee3bb453e635d65811542e,PennController,29,0,p_trial_4_spatial_cue_DOWN,NULL,PennController,35,_Header_,End,1648074827628,CRYSTAL_5,NULL
1648075484,ea4822a528ee3bb453e635d65811542e,PennController,29,0,p_trial_4_spatial_cue_DOWN,NULL,PennController,35,_Trial_,End,1648074833632,CRYSTAL_5,NULL
1648075484,ea4822a528ee3bb453e635d65811542e,PennController,13,0,p_trial_2_center_cue_UP,NULL,PennController,19,_Trial_,Start,1648074833633,CRYSTAL_5,NULL
1648075484,ea4822a528ee3bb453e635d65811542e,PennController,13,0,p_trial_2_center_cue_UP,NULL,PennController,19,_Header_,Start,1648074833633,CRYSTAL_5,NULL
1648075484,ea4822a528ee3bb453e635d65811542e,PennController,13,0,p_trial_2_center_cue_UP,NULL,PennController,19,_Header_,End,1648074833633,CRYSTAL_5,NULL
1648075484,ea4822a528ee3bb453e635d65811542e,PennController,13,0,p_trial_2_center_cue_UP,NULL,PennController,19,_Trial_,End,1648074839637,CRYSTAL_5,NULL
1648075484,ea4822a528ee3bb453e635d65811542e,PennController,18,0,p_trial_3_double_cue_UP,NULL,PennController,24,_Trial_,Start,1648074839639,CRYSTAL_5,NULL
1648075484,ea4822a528ee3bb453e635d65811542e,PennController,18,0,p_trial_3_double_cue_UP,NULL,PennController,24,_Header_,Start,1648074839639,CRYSTAL_5,NULL
1648075484,ea4822a528ee3bb453e635d65811542e,PennController,18,0,p_trial_3_double_cue_UP,NULL,PennController,24,_Header_,End,1648074839639,CRYSTAL_5,NULL
1648075484,ea4822a528ee3bb453e635d65811542e,PennController,18,0,p_trial_3_double_cue_UP,NULL,PennController,24,_Trial_,End,1648074845644,CRYSTAL_5,NULL
1648075484,ea4822a528ee3bb453e635d65811542e,PennController,23,0,p_trial_3_double_cue_DOWN,NULL,PennController,29,_Trial_,Start,1648074845646,CRYSTAL_5,NULL
1648075484,ea4822a528ee3bb453e635d65811542e,PennController,23,0,p_trial_3_double_cue_DOWN,NULL,PennController,29,_Header_,Start,1648074845646,CRYSTAL_5,NULL
1648075484,ea4822a528ee3bb453e635d65811542e,PennController,23,0,p_trial_3_double_cue_DOWN,NULL,PennController,29,_Header_,End,1648074845646,CRYSTAL_5,NULL
1648075484,ea4822a528ee3bb453e635d65811542e,PennController,23,0,p_trial_3_double_cue_DOWN,NULL,PennController,29,_Trial_,End,1648074851650,CRYSTAL_5,NULL
1648075484,ea4822a528ee3bb453e635d65811542e,PennController,15,0,p_trial_2_center_cue_DOWN,NULL,PennController,21,_Trial_,Start,1648074851652,CRYSTAL_5,NULL
1648075484,ea4822a528ee3bb453e635d65811542e,PennController,15,0,p_trial_2_center_cue_DOWN,NULL,PennController,21,_Header_,Start,1648074851652,CRYSTAL_5,NULL
1648075484,ea4822a528ee3bb453e635d65811542e,PennController,15,0,p_trial_2_center_cue_DOWN,NULL,PennController,21,_Header_,End,1648074851652,CRYSTAL_5,NULL
1648075484,ea4822a528ee3bb453e635d65811542e,PennController,15,0,p_trial_2_center_cue_DOWN,NULL,PennController,21,_Trial_,End,1648074857655,CRYSTAL_5,NULL
1648075484,ea4822a528ee3bb453e635d65811542e,PennController,30,0,feedback-trial,NULL,PennController,6,_Trial_,Start,1648074857657,CRYSTAL_5,NULL
1648075484,ea4822a528ee3bb453e635d65811542e,PennController,30,0,feedback-trial,NULL,PennController,6,_Header_,Start,1648074857657,CRYSTAL_5,NULL
1648075484,ea4822a528ee3bb453e635d65811542e,PennController,30,0,feedback-trial,NULL,PennController,6,_Header_,End,1648074857657,CRYSTAL_5,NULL
1648075484,ea4822a528ee3bb453e635d65811542e,PennController,30,0,feedback-trial,NULL,PennController,6,_Trial_,End,1648074864191,CRYSTAL_5,NULL
1648075484,ea4822a528ee3bb453e635d65811542e,PennController,31,0,instructions_E,NULL,PennController,7,_Trial_,Start,1648074864192,CRYSTAL_5,NULL
1648075484,ea4822a528ee3bb453e635d65811542e,PennController,31,0,instructions_E,NULL,PennController,7,_Header_,Start,1648074864192,CRYSTAL_5,NULL
1648075484,ea4822a528ee3bb453e635d65811542e,PennController,31,0,instructions_E,NULL,PennController,7,_Header_,End,1648074864192,CRYSTAL_5,NULL
1648075484,ea4822a528ee3bb453e635d65811542e,PennController,31,0,instructions_E,NULL,PennController,7,_Trial_,End,1648074865762,CRYSTAL_5,NULL
1648075484,ea4822a528ee3bb453e635d65811542e,PennController,32,0,keyboard_warning_short,NULL,PennController,8,_Trial_,Start,1648074865763,CRYSTAL_5,NULL
1648075484,ea4822a528ee3bb453e635d65811542e,PennController,32,0,keyboard_warning_short,NULL,PennController,8,_Header_,Start,1648074865763,CRYSTAL_5,NULL
1648075484,ea4822a528ee3bb453e635d65811542e,PennController,32,0,keyboard_warning_short,NULL,PennController,8,_Header_,End,1648074865763,CRYSTAL_5,NULL
1648075484,ea4822a528ee3bb453e635d65811542e,PennController,32,0,keyboard_warning_short,NULL,PennController,8,_Trial_,End,1648074867264,CRYSTAL_5,NULL
# 14. imagens.
# 15. item.
# 16. Comments.
1648075484,ea4822a528ee3bb453e635d65811542e,PennController,39,0,trial_1_no_cue_DOWN,NULL,PennController,42,_Trial_,Start,1648074867266,CRYSTAL_5,cong-right.png,1,NULL
1648075484,ea4822a528ee3bb453e635d65811542e,PennController,39,0,trial_1_no_cue_DOWN,NULL,PennController,42,_Header_,Start,1648074867266,CRYSTAL_5,cong-right.png,1,NULL
1648075484,ea4822a528ee3bb453e635d65811542e,PennController,39,0,trial_1_no_cue_DOWN,NULL,PennController,42,_Header_,End,1648074867266,CRYSTAL_5,cong-right.png,1,NULL
1648075484,ea4822a528ee3bb453e635d65811542e,PennController,39,0,trial_1_no_cue_DOWN,NULL,Canvas,center,Print,NA,1648074869123,CRYSTAL_5,cong-right.png,1,NULL
1648075484,ea4822a528ee3bb453e635d65811542e,PennController,39,0,trial_1_no_cue_DOWN,NULL,Key,keypress1,Key,NA,Never,CRYSTAL_5,cong-right.png,1,(failed keypresses happened)
1648075484,ea4822a528ee3bb453e635d65811542e,PennController,39,0,trial_1_no_cue_DOWN,NULL,PennController,42,_Trial_,End,1648074871856,CRYSTAL_5,cong-right.png,1,NULL
1648075484,ea4822a528ee3bb453e635d65811542e,PennController,75,0,trial_4_spatial_cue_DOWN,NULL,PennController,78,_Trial_,Start,1648074871858,CRYSTAL_5,cong-right.png,1,NULL
1648075484,ea4822a528ee3bb453e635d65811542e,PennController,75,0,trial_4_spatial_cue_DOWN,NULL,PennController,78,_Header_,Start,1648074871858,CRYSTAL_5,cong-right.png,1,NULL
1648075484,ea4822a528ee3bb453e635d65811542e,PennController,75,0,trial_4_spatial_cue_DOWN,NULL,PennController,78,_Header_,End,1648074871859,CRYSTAL_5,cong-right.png,1,NULL
1648075484,ea4822a528ee3bb453e635d65811542e,PennController,75,0,trial_4_spatial_cue_DOWN,NULL,Canvas,center,Print,NA,1648074872857,CRYSTAL_5,cong-right.png,1,NULL
1648075484,ea4822a528ee3bb453e635d65811542e,PennController,75,0,trial_4_spatial_cue_DOWN,NULL,Key,keypress1,PressedKey,K,1648074873070,CRYSTAL_5,cong-right.png,1,NULL
1648075484,ea4822a528ee3bb453e635d65811542e,PennController,75,0,trial_4_spatial_cue_DOWN,NULL,PennController,78,_Trial_,End,1648074875862,CRYSTAL_5,cong-right.png,1,NULL
1648075484,ea4822a528ee3bb453e635d65811542e,PennController,68,0,trial_3_double_cue_DOWN,NULL,PennController,71,_Trial_,Start,1648074875863,CRYSTAL_5,neutral-left.png,6,NULL
1648075484,ea4822a528ee3bb453e635d65811542e,PennController,68,0,trial_3_double_cue_DOWN,NULL,PennController,71,_Header_,Start,1648074875863,CRYSTAL_5,neutral-left.png,6,NULL
1648075484,ea4822a528ee3bb453e635d65811542e,PennController,68,0,trial_3_double_cue_DOWN,NULL,PennController,71,_Header_,End,1648074875863,CRYSTAL_5,neutral-left.png,6,NULL
1648075484,ea4822a528ee3bb453e635d65811542e,PennController,68,0,trial_3_double_cue_DOWN,NULL,Canvas,center,Print,NA,1648074876969,CRYSTAL_5,neutral-left.png,6,NULL
1648075484,ea4822a528ee3bb453e635d65811542e,PennController,68,0,trial_3_double_cue_DOWN,NULL,Key,keypress1,PressedKey,K,1648074877121,CRYSTAL_5,neutral-left.png,6,NULL
1648075484,ea4822a528ee3bb453e635d65811542e,PennController,68,0,trial_3_double_cue_DOWN,NULL,PennController,71,_Trial_,End,1648074879867,CRYSTAL_5,neutral-left.png,6,NULL
1648075484,ea4822a528ee3bb453e635d65811542e,PennController,53,0,trial_2_center_cue_DOWN,NULL,PennController,56,_Trial_,Start,1648074879869,CRYSTAL_5,neutral-right.png,3,NULL
1648075484,ea4822a528ee3bb453e635d65811542e,PennController,53,0,trial_2_center_cue_DOWN,NULL,PennController,56,_Header_,Start,1648074879869,CRYSTAL_5,neutral-right.png,3,NULL
1648075484,ea4822a528ee3bb453e635d65811542e,PennController,53,0,trial_2_center_cue_DOWN,NULL,PennController,56,_Header_,End,1648074879869,CRYSTAL_5,neutral-right.png,3,NULL
1648075484,ea4822a528ee3bb453e635d65811542e,PennController,53,0,trial_2_center_cue_DOWN,NULL,Canvas,center,Print,NA,1648074881871,CRYSTAL_5,neutral-right.png,3,NULL
1648075484,ea4822a528ee3bb453e635d65811542e,PennController,53,0,trial_2_center_cue_DOWN,NULL,Key,keypress1,PressedKey,K,1648074882074,CRYSTAL_5,neutral-right.png,3,NULL
1648075484,ea4822a528ee3bb453e635d65811542e,PennController,53,0,trial_2_center_cue_DOWN,NULL,PennController,56,_Trial_,End,1648074883872,CRYSTAL_5,neutral-right.png,3,NULL
1648075484,ea4822a528ee3bb453e635d65811542e,PennController,71,0,trial_4_spatial_cue_UP,NULL,PennController,74,_Trial_,Start,1648074883874,CRYSTAL_5,neutral-right.png,3,NULL
1648075484,ea4822a528ee3bb453e635d65811542e,PennController,71,0,trial_4_spatial_cue_UP,NULL,PennController,74,_Header_,Start,1648074883874,CRYSTAL_5,neutral-right.png,3,NULL
1648075484,ea4822a528ee3bb453e635d65811542e,PennController,71,0,trial_4_spatial_cue_UP,NULL,PennController,74,_Header_,End,1648074883874,CRYSTAL_5,neutral-right.png,3,NULL
1648075484,ea4822a528ee3bb453e635d65811542e,PennController,71,0,trial_4_spatial_cue_UP,NULL,Canvas,center,Print,NA,1648074885633,CRYSTAL_5,neutral-right.png,3,NULL
1648075484,ea4822a528ee3bb453e635d65811542e,PennController,71,0,trial_4_spatial_cue_UP,NULL,Key,keypress1,PressedKey,K,1648074885927,CRYSTAL_5,neutral-right.png,3,NULL
1648075484,ea4822a528ee3bb453e635d65811542e,PennController,71,0,trial_4_spatial_cue_UP,NULL,PennController,74,_Trial_,End,1648074887875,CRYSTAL_5,neutral-right.png,3,NULL
1648075484,ea4822a528ee3bb453e635d65811542e,PennController,58,0,trial_3_double_cue_UP,NULL,PennController,61,_Trial_,Start,1648074887876,CRYSTAL_5,incong-right.png,2,NULL
1648075484,ea4822a528ee3bb453e635d65811542e,PennController,58,0,trial_3_double_cue_UP,NULL,PennController,61,_Header_,Start,1648074887876,CRYSTAL_5,incong-right.png,2,NULL
1648075484,ea4822a528ee3bb453e635d65811542e,PennController,58,0,trial_3_double_cue_UP,NULL,PennController,61,_Header_,End,1648074887876,CRYSTAL_5,incong-right.png,2,NULL
1648075484,ea4822a528ee3bb453e635d65811542e,PennController,58,0,trial_3_double_cue_UP,NULL,Canvas,center,Print,NA,1648074889324,CRYSTAL_5,incong-right.png,2,NULL
1648075484,ea4822a528ee3bb453e635d65811542e,PennController,58,0,trial_3_double_cue_UP,NULL,Key,keypress1,PressedKey,K,1648074889737,CRYSTAL_5,incong-right.png,2,NULL
1648075484,ea4822a528ee3bb453e635d65811542e,PennController,58,0,trial_3_double_cue_UP,NULL,PennController,61,_Trial_,End,1648074891877,CRYSTAL_5,incong-right.png,2,NULL
1648075484,ea4822a528ee3bb453e635d65811542e,PennController,37,0,trial_1_no_cue_UP,NULL,PennController,40,_Trial_,Start,1648074891878,CRYSTAL_5,incong-left.png,5,NULL
1648075484,ea4822a528ee3bb453e635d65811542e,PennController,37,0,trial_1_no_cue_UP,NULL,PennController,40,_Header_,Start,1648074891878,CRYSTAL_5,incong-left.png,5,NULL
1648075484,ea4822a528ee3bb453e635d65811542e,PennController,37,0,trial_1_no_cue_UP,NULL,PennController,40,_Header_,End,1648074891878,CRYSTAL_5,incong-left.png,5,NULL
1648075484,ea4822a528ee3bb453e635d65811542e,PennController,37,0,trial_1_no_cue_UP,NULL,Canvas,center,Print,NA,1648074893751,CRYSTAL_5,incong-left.png,5,NULL
1648075484,ea4822a528ee3bb453e635d65811542e,PennController,37,0,trial_1_no_cue_UP,NULL,Key,keypress1,PressedKey,K,1648074894298,CRYSTAL_5,incong-left.png,5,NULL
1648075484,ea4822a528ee3bb453e635d65811542e,PennController,37,0,trial_1_no_cue_UP,NULL,PennController,40,_Trial_,End,1648074896806,CRYSTAL_5,incong-left.png,5,NULL
1648075484,ea4822a528ee3bb453e635d65811542e,PennController,48,0,trial_2_center_cue_UP,NULL,PennController,51,_Trial_,Start,1648074896808,CRYSTAL_5,cong-left.png,4,NULL
1648075484,ea4822a528ee3bb453e635d65811542e,PennController,48,0,trial_2_center_cue_UP,NULL,PennController,51,_Header_,Start,1648074896808,CRYSTAL_5,cong-left.png,4,NULL
1648075484,ea4822a528ee3bb453e635d65811542e,PennController,48,0,trial_2_center_cue_UP,NULL,PennController,51,_Header_,End,1648074896808,CRYSTAL_5,cong-left.png,4,NULL
1648075484,ea4822a528ee3bb453e635d65811542e,PennController,48,0,trial_2_center_cue_UP,NULL,Canvas,center,Print,NA,1648074898060,CRYSTAL_5,cong-left.png,4,NULL
1648075484,ea4822a528ee3bb453e635d65811542e,PennController,48,0,trial_2_center_cue_UP,NULL,Key,keypress1,PressedKey,K,1648074898679,CRYSTAL_5,cong-left.png,4,NULL
1648075484,ea4822a528ee3bb453e635d65811542e,PennController,48,0,trial_2_center_cue_UP,NULL,PennController,51,_Trial_,End,1648074900813,CRYSTAL_5,cong-left.png,4,NULL
1648075484,ea4822a528ee3bb453e635d65811542e,PennController,40,0,trial_1_no_cue_DOWN,NULL,PennController,43,_Trial_,Start,1648074900816,CRYSTAL_5,incong-right.png,2,NULL
1648075484,ea4822a528ee3bb453e635d65811542e,PennController,40,0,trial_1_no_cue_DOWN,NULL,PennController,43,_Header_,Start,1648074900816,CRYSTAL_5,incong-right.png,2,NULL
1648075484,ea4822a528ee3bb453e635d65811542e,PennController,40,0,trial_1_no_cue_DOWN,NULL,PennController,43,_Header_,End,1648074900816,CRYSTAL_5,incong-right.png,2,NULL
1648075484,ea4822a528ee3bb453e635d65811542e,PennController,40,0,trial_1_no_cue_DOWN,NULL,Canvas,center,Print,NA,1648074902927,CRYSTAL_5,incong-right.png,2,NULL
1648075484,ea4822a528ee3bb453e635d65811542e,PennController,40,0,trial_1_no_cue_DOWN,NULL,Key,keypress1,Key,NA,Never,CRYSTAL_5,incong-right.png,2,(failed keypresses happened)
1648075484,ea4822a528ee3bb453e635d65811542e,PennController,40,0,trial_1_no_cue_DOWN,NULL,PennController,43,_Trial_,End,1648074905707,CRYSTAL_5,incong-right.png,2,NULL
1648075484,ea4822a528ee3bb453e635d65811542e,PennController,76,0,trial_4_spatial_cue_DOWN,NULL,PennController,79,_Trial_,Start,1648074905709,CRYSTAL_5,incong-right.png,2,NULL
1648075484,ea4822a528ee3bb453e635d65811542e,PennController,76,0,trial_4_spatial_cue_DOWN,NULL,PennController,79,_Header_,Start,1648074905709,CRYSTAL_5,incong-right.png,2,NULL
1648075484,ea4822a528ee3bb453e635d65811542e,PennController,76,0,trial_4_spatial_cue_DOWN,NULL,PennController,79,_Header_,End,1648074905709,CRYSTAL_5,incong-right.png,2,NULL
1648075484,ea4822a528ee3bb453e635d65811542e,PennController,76,0,trial_4_spatial_cue_DOWN,NULL,Canvas,center,Print,NA,1648074906962,CRYSTAL_5,incong-right.png,2,NULL
1648075484,ea4822a528ee3bb453e635d65811542e,PennController,76,0,trial_4_spatial_cue_DOWN,NULL,Key,keypress1,PressedKey,K,1648074907605,CRYSTAL_5,incong-right.png,2,NULL
1648075484,ea4822a528ee3bb453e635d65811542e,PennController,76,0,trial_4_spatial_cue_DOWN,NULL,PennController,79,_Trial_,End,1648074909715,CRYSTAL_5,incong-right.png,2,NULL
1648075484,ea4822a528ee3bb453e635d65811542e,PennController,66,0,trial_3_double_cue_DOWN,NULL,PennController,69,_Trial_,Start,1648074909717,CRYSTAL_5,cong-left.png,4,NULL
1648075484,ea4822a528ee3bb453e635d65811542e,PennController,66,0,trial_3_double_cue_DOWN,NULL,PennController,69,_Header_,Start,1648074909717,CRYSTAL_5,cong-left.png,4,NULL
1648075484,ea4822a528ee3bb453e635d65811542e,PennController,66,0,trial_3_double_cue_DOWN,NULL,PennController,69,_Header_,End,1648074909718,CRYSTAL_5,cong-left.png,4,NULL
1648075484,ea4822a528ee3bb453e635d65811542e,PennController,66,0,trial_3_double_cue_DOWN,NULL,Canvas,center,Print,NA,1648074911653,CRYSTAL_5,cong-left.png,4,NULL
1648075484,ea4822a528ee3bb453e635d65811542e,PennController,66,0,trial_3_double_cue_DOWN,NULL,Key,keypress1,PressedKey,K,1648074912007,CRYSTAL_5,cong-left.png,4,NULL
1648075484,ea4822a528ee3bb453e635d65811542e,PennController,66,0,trial_3_double_cue_DOWN,NULL,PennController,69,_Trial_,End,1648074913724,CRYSTAL_5,cong-left.png,4,NULL
1648075484,ea4822a528ee3bb453e635d65811542e,PennController,51,0,trial_2_center_cue_DOWN,NULL,PennController,54,_Trial_,Start,1648074913725,CRYSTAL_5,cong-right.png,1,NULL
1648075484,ea4822a528ee3bb453e635d65811542e,PennController,51,0,trial_2_center_cue_DOWN,NULL,PennController,54,_Header_,Start,1648074913725,CRYSTAL_5,cong-right.png,1,NULL
1648075484,ea4822a528ee3bb453e635d65811542e,PennController,51,0,trial_2_center_cue_DOWN,NULL,PennController,54,_Header_,End,1648074913725,CRYSTAL_5,cong-right.png,1,NULL
1648075484,ea4822a528ee3bb453e635d65811542e,PennController,51,0,trial_2_center_cue_DOWN,NULL,Canvas,center,Print,NA,1648074915803,CRYSTAL_5,cong-right.png,1,NULL
1648075484,ea4822a528ee3bb453e635d65811542e,PennController,51,0,trial_2_center_cue_DOWN,NULL,Key,keypress1,PressedKey,K,1648074916177,CRYSTAL_5,cong-right.png,1,NULL
1648075484,ea4822a528ee3bb453e635d65811542e,PennController,51,0,trial_2_center_cue_DOWN,NULL,PennController,54,_Trial_,End,1648074917727,CRYSTAL_5,cong-right.png,1,NULL
1648075484,ea4822a528ee3bb453e635d65811542e,PennController,69,0,trial_4_spatial_cue_UP,NULL,PennController,72,_Trial_,Start,1648074917729,CRYSTAL_5,cong-right.png,1,NULL
1648075484,ea4822a528ee3bb453e635d65811542e,PennController,69,0,trial_4_spatial_cue_UP,NULL,PennController,72,_Header_,Start,1648074917729,CRYSTAL_5,cong-right.png,1,NULL
1648075484,ea4822a528ee3bb453e635d65811542e,PennController,69,0,trial_4_spatial_cue_UP,NULL,PennController,72,_Header_,End,1648074917729,CRYSTAL_5,cong-right.png,1,NULL
1648075484,ea4822a528ee3bb453e635d65811542e,PennController,69,0,trial_4_spatial_cue_UP,NULL,Canvas,center,Print,NA,1648074919460,CRYSTAL_5,cong-right.png,1,NULL
1648075484,ea4822a528ee3bb453e635d65811542e,PennController,69,0,trial_4_spatial_cue_UP,NULL,Key,keypress1,PressedKey,K,1648074919792,CRYSTAL_5,cong-right.png,1,NULL
1648075484,ea4822a528ee3bb453e635d65811542e,PennController,69,0,trial_4_spatial_cue_UP,NULL,PennController,72,_Trial_,End,1648074921734,CRYSTAL_5,cong-right.png,1,NULL
1648075484,ea4822a528ee3bb453e635d65811542e,PennController,57,0,trial_3_double_cue_UP,NULL,PennController,60,_Trial_,Start,1648074921736,CRYSTAL_5,cong-right.png,1,NULL
1648075484,ea4822a528ee3bb453e635d65811542e,PennController,57,0,trial_3_double_cue_UP,NULL,PennController,60,_Header_,Start,1648074921736,CRYSTAL_5,cong-right.png,1,NULL
1648075484,ea4822a528ee3bb453e635d65811542e,PennController,57,0,trial_3_double_cue_UP,NULL,PennController,60,_Header_,End,1648074921736,CRYSTAL_5,cong-right.png,1,NULL
1648075484,ea4822a528ee3bb453e635d65811542e,PennController,57,0,trial_3_double_cue_UP,NULL,Canvas,center,Print,NA,1648074923339,CRYSTAL_5,cong-right.png,1,NULL
1648075484,ea4822a528ee3bb453e635d65811542e,PennController,57,0,trial_3_double_cue_UP,NULL,Key,keypress1,PressedKey,K,1648074923463,CRYSTAL_5,cong-right.png,1,NULL
1648075484,ea4822a528ee3bb453e635d65811542e,PennController,57,0,trial_3_double_cue_UP,NULL,PennController,60,_Trial_,End,1648074925742,CRYSTAL_5,cong-right.png,1,NULL
1648075484,ea4822a528ee3bb453e635d65811542e,PennController,33,0,trial_1_no_cue_UP,NULL,PennController,36,_Trial_,Start,1648074925744,CRYSTAL_5,cong-right.png,1,NULL
1648075484,ea4822a528ee3bb453e635d65811542e,PennController,33,0,trial_1_no_cue_UP,NULL,PennController,36,_Header_,Start,1648074925744,CRYSTAL_5,cong-right.png,1,NULL
1648075484,ea4822a528ee3bb453e635d65811542e,PennController,33,0,trial_1_no_cue_UP,NULL,PennController,36,_Header_,End,1648074925744,CRYSTAL_5,cong-right.png,1,NULL
1648075484,ea4822a528ee3bb453e635d65811542e,PennController,33,0,trial_1_no_cue_UP,NULL,Canvas,center,Print,NA,1648074926853,CRYSTAL_5,cong-right.png,1,NULL
1648075484,ea4822a528ee3bb453e635d65811542e,PennController,33,0,trial_1_no_cue_UP,NULL,Key,keypress1,PressedKey,K,1648074927232,CRYSTAL_5,cong-right.png,1,NULL
1648075484,ea4822a528ee3bb453e635d65811542e,PennController,33,0,trial_1_no_cue_UP,NULL,PennController,36,_Trial_,End,1648074929737,CRYSTAL_5,cong-right.png,1,NULL
1648075484,ea4822a528ee3bb453e635d65811542e,PennController,46,0,trial_2_center_cue_UP,NULL,PennController,49,_Trial_,Start,1648074929738,CRYSTAL_5,incong-right.png,2,NULL
1648075484,ea4822a528ee3bb453e635d65811542e,PennController,46,0,trial_2_center_cue_UP,NULL,PennController,49,_Header_,Start,1648074929738,CRYSTAL_5,incong-right.png,2,NULL
1648075484,ea4822a528ee3bb453e635d65811542e,PennController,46,0,trial_2_center_cue_UP,NULL,PennController,49,_Header_,End,1648074929738,CRYSTAL_5,incong-right.png,2,NULL
1648075484,ea4822a528ee3bb453e635d65811542e,PennController,46,0,trial_2_center_cue_UP,NULL,Canvas,center,Print,NA,1648074930671,CRYSTAL_5,incong-right.png,2,NULL
1648075484,ea4822a528ee3bb453e635d65811542e,PennController,46,0,trial_2_center_cue_UP,NULL,Key,keypress1,PressedKey,K,1648074931002,CRYSTAL_5,incong-right.png,2,NULL
1648075484,ea4822a528ee3bb453e635d65811542e,PennController,46,0,trial_2_center_cue_UP,NULL,PennController,49,_Trial_,End,1648074933742,CRYSTAL_5,incong-right.png,2,NULL
1648075484,ea4822a528ee3bb453e635d65811542e,PennController,43,0,trial_1_no_cue_DOWN,NULL,PennController,46,_Trial_,Start,1648074933744,CRYSTAL_5,incong-left.png,5,NULL
1648075484,ea4822a528ee3bb453e635d65811542e,PennController,43,0,trial_1_no_cue_DOWN,NULL,PennController,46,_Header_,Start,1648074933744,CRYSTAL_5,incong-left.png,5,NULL
1648075484,ea4822a528ee3bb453e635d65811542e,PennController,43,0,trial_1_no_cue_DOWN,NULL,PennController,46,_Header_,End,1648074933744,CRYSTAL_5,incong-left.png,5,NULL
1648075484,ea4822a528ee3bb453e635d65811542e,PennController,43,0,trial_1_no_cue_DOWN,NULL,Canvas,center,Print,NA,1648074935519,CRYSTAL_5,incong-left.png,5,NULL
1648075484,ea4822a528ee3bb453e635d65811542e,PennController,43,0,trial_1_no_cue_DOWN,NULL,Key,keypress1,Key,NA,Never,CRYSTAL_5,incong-left.png,5,(failed keypresses happened)
1648075484,ea4822a528ee3bb453e635d65811542e,PennController,43,0,trial_1_no_cue_DOWN,NULL,PennController,46,_Trial_,End,1648074938284,CRYSTAL_5,incong-left.png,5,NULL
1648075484,ea4822a528ee3bb453e635d65811542e,PennController,77,0,trial_4_spatial_cue_DOWN,NULL,PennController,80,_Trial_,Start,1648074938285,CRYSTAL_5,neutral-right.png,3,NULL
1648075484,ea4822a528ee3bb453e635d65811542e,PennController,77,0,trial_4_spatial_cue_DOWN,NULL,PennController,80,_Header_,Start,1648074938285,CRYSTAL_5,neutral-right.png,3,NULL
1648075484,ea4822a528ee3bb453e635d65811542e,PennController,77,0,trial_4_spatial_cue_DOWN,NULL,PennController,80,_Header_,End,1648074938285,CRYSTAL_5,neutral-right.png,3,NULL
1648075484,ea4822a528ee3bb453e635d65811542e,PennController,77,0,trial_4_spatial_cue_DOWN,NULL,Canvas,center,Print,NA,1648074939664,CRYSTAL_5,neutral-right.png,3,NULL
1648075484,ea4822a528ee3bb453e635d65811542e,PennController,77,0,trial_4_spatial_cue_DOWN,NULL,Key,keypress1,PressedKey,K,1648074939929,CRYSTAL_5,neutral-right.png,3,NULL
1648075484,ea4822a528ee3bb453e635d65811542e,PennController,77,0,trial_4_spatial_cue_DOWN,NULL,PennController,80,_Trial_,End,1648074942288,CRYSTAL_5,neutral-right.png,3,NULL
1648075484,ea4822a528ee3bb453e635d65811542e,PennController,67,0,trial_3_double_cue_DOWN,NULL,PennController,70,_Trial_,Start,1648074942289,CRYSTAL_5,incong-left.png,5,NULL
1648075484,ea4822a528ee3bb453e635d65811542e,PennController,67,0,trial_3_double_cue_DOWN,NULL,PennController,70,_Header_,Start,1648074942289,CRYSTAL_5,incong-left.png,5,NULL
1648075484,ea4822a528ee3bb453e635d65811542e,PennController,67,0,trial_3_double_cue_DOWN,NULL,PennController,70,_Header_,End,1648074942290,CRYSTAL_5,incong-left.png,5,NULL
1648075484,ea4822a528ee3bb453e635d65811542e,PennController,67,0,trial_3_double_cue_DOWN,NULL,Canvas,center,Print,NA,1648074943494,CRYSTAL_5,incong-left.png,5,NULL
1648075484,ea4822a528ee3bb453e635d65811542e,PennController,67,0,trial_3_double_cue_DOWN,NULL,Key,keypress1,PressedKey,K,1648074943829,CRYSTAL_5,incong-left.png,5,NULL
1648075484,ea4822a528ee3bb453e635d65811542e,PennController,67,0,trial_3_double_cue_DOWN,NULL,PennController,70,_Trial_,End,1648074946292,CRYSTAL_5,incong-left.png,5,NULL
1648075484,ea4822a528ee3bb453e635d65811542e,PennController,52,0,trial_2_center_cue_DOWN,NULL,PennController,55,_Trial_,Start,1648074946294,CRYSTAL_5,incong-right.png,2,NULL
1648075484,ea4822a528ee3bb453e635d65811542e,PennController,52,0,trial_2_center_cue_DOWN,NULL,PennController,55,_Header_,Start,1648074946294,CRYSTAL_5,incong-right.png,2,NULL
1648075484,ea4822a528ee3bb453e635d65811542e,PennController,52,0,trial_2_center_cue_DOWN,NULL,PennController,55,_Header_,End,1648074946294,CRYSTAL_5,incong-right.png,2,NULL
1648075484,ea4822a528ee3bb453e635d65811542e,PennController,52,0,trial_2_center_cue_DOWN,NULL,Canvas,center,Print,NA,1648074948378,CRYSTAL_5,incong-right.png,2,NULL
1648075484,ea4822a528ee3bb453e635d65811542e,PennController,52,0,trial_2_center_cue_DOWN,NULL,Key,keypress1,PressedKey,K,1648074949191,CRYSTAL_5,incong-right.png,2,NULL
1648075484,ea4822a528ee3bb453e635d65811542e,PennController,52,0,trial_2_center_cue_DOWN,NULL,PennController,55,_Trial_,End,1648074950298,CRYSTAL_5,incong-right.png,2,NULL
1648075484,ea4822a528ee3bb453e635d65811542e,PennController,70,0,trial_4_spatial_cue_UP,NULL,PennController,73,_Trial_,Start,1648074950301,CRYSTAL_5,incong-right.png,2,NULL
1648075484,ea4822a528ee3bb453e635d65811542e,PennController,70,0,trial_4_spatial_cue_UP,NULL,PennController,73,_Header_,Start,1648074950301,CRYSTAL_5,incong-right.png,2,NULL
1648075484,ea4822a528ee3bb453e635d65811542e,PennController,70,0,trial_4_spatial_cue_UP,NULL,PennController,73,_Header_,End,1648074950301,CRYSTAL_5,incong-right.png,2,NULL
1648075484,ea4822a528ee3bb453e635d65811542e,PennController,70,0,trial_4_spatial_cue_UP,NULL,Canvas,center,Print,NA,1648074951390,CRYSTAL_5,incong-right.png,2,NULL
1648075484,ea4822a528ee3bb453e635d65811542e,PennController,70,0,trial_4_spatial_cue_UP,NULL,Key,keypress1,PressedKey,K,1648074952507,CRYSTAL_5,incong-right.png,2,NULL
1648075484,ea4822a528ee3bb453e635d65811542e,PennController,70,0,trial_4_spatial_cue_UP,NULL,PennController,73,_Trial_,End,1648074954303,CRYSTAL_5,incong-right.png,2,NULL
1648075484,ea4822a528ee3bb453e635d65811542e,PennController,62,0,trial_3_double_cue_UP,NULL,PennController,65,_Trial_,Start,1648074954305,CRYSTAL_5,neutral-left.png,6,NULL
1648075484,ea4822a528ee3bb453e635d65811542e,PennController,62,0,trial_3_double_cue_UP,NULL,PennController,65,_Header_,Start,1648074954305,CRYSTAL_5,neutral-left.png,6,NULL
1648075484,ea4822a528ee3bb453e635d65811542e,PennController,62,0,trial_3_double_cue_UP,NULL,PennController,65,_Header_,End,1648074954305,CRYSTAL_5,neutral-left.png,6,NULL
1648075484,ea4822a528ee3bb453e635d65811542e,PennController,62,0,trial_3_double_cue_UP,NULL,Canvas,center,Print,NA,1648074955741,CRYSTAL_5,neutral-left.png,6,NULL
1648075484,ea4822a528ee3bb453e635d65811542e,PennController,62,0,trial_3_double_cue_UP,NULL,Key,keypress1,PressedKey,K,1648074956207,CRYSTAL_5,neutral-left.png,6,NULL
1648075484,ea4822a528ee3bb453e635d65811542e,PennController,62,0,trial_3_double_cue_UP,NULL,PennController,65,_Trial_,End,1648074958310,CRYSTAL_5,neutral-left.png,6,NULL
1648075484,ea4822a528ee3bb453e635d65811542e,PennController,34,0,trial_1_no_cue_UP,NULL,PennController,37,_Trial_,Start,1648074958312,CRYSTAL_5,incong-right.png,2,NULL
1648075484,ea4822a528ee3bb453e635d65811542e,PennController,34,0,trial_1_no_cue_UP,NULL,PennController,37,_Header_,Start,1648074958312,CRYSTAL_5,incong-right.png,2,NULL
1648075484,ea4822a528ee3bb453e635d65811542e,PennController,34,0,trial_1_no_cue_UP,NULL,PennController,37,_Header_,End,1648074958312,CRYSTAL_5,incong-right.png,2,NULL
1648075484,ea4822a528ee3bb453e635d65811542e,PennController,34,0,trial_1_no_cue_UP,NULL,Canvas,center,Print,NA,1648074960265,CRYSTAL_5,incong-right.png,2,NULL
1648075484,ea4822a528ee3bb453e635d65811542e,PennController,34,0,trial_1_no_cue_UP,NULL,Key,keypress1,PressedKey,K,1648074960614,CRYSTAL_5,incong-right.png,2,NULL
1648075484,ea4822a528ee3bb453e635d65811542e,PennController,34,0,trial_1_no_cue_UP,NULL,PennController,37,_Trial_,End,1648074963119,CRYSTAL_5,incong-right.png,2,NULL
1648075484,ea4822a528ee3bb453e635d65811542e,PennController,49,0,trial_2_center_cue_UP,NULL,PennController,52,_Trial_,Start,1648074963121,CRYSTAL_5,incong-left.png,5,NULL
1648075484,ea4822a528ee3bb453e635d65811542e,PennController,49,0,trial_2_center_cue_UP,NULL,PennController,52,_Header_,Start,1648074963121,CRYSTAL_5,incong-left.png,5,NULL
1648075484,ea4822a528ee3bb453e635d65811542e,PennController,49,0,trial_2_center_cue_UP,NULL,PennController,52,_Header_,End,1648074963121,CRYSTAL_5,incong-left.png,5,NULL
1648075484,ea4822a528ee3bb453e635d65811542e,PennController,49,0,trial_2_center_cue_UP,NULL,Canvas,center,Print,NA,1648074964805,CRYSTAL_5,incong-left.png,5,NULL
1648075484,ea4822a528ee3bb453e635d65811542e,PennController,49,0,trial_2_center_cue_UP,NULL,Key,keypress1,PressedKey,K,1648074965123,CRYSTAL_5,incong-left.png,5,NULL
1648075484,ea4822a528ee3bb453e635d65811542e,PennController,49,0,trial_2_center_cue_UP,NULL,PennController,52,_Trial_,End,1648074967125,CRYSTAL_5,incong-left.png,5,NULL
1648075484,ea4822a528ee3bb453e635d65811542e,PennController,41,0,trial_1_no_cue_DOWN,NULL,PennController,44,_Trial_,Start,1648074967126,CRYSTAL_5,neutral-right.png,3,NULL
1648075484,ea4822a528ee3bb453e635d65811542e,PennController,41,0,trial_1_no_cue_DOWN,NULL,PennController,44,_Header_,Start,1648074967126,CRYSTAL_5,neutral-right.png,3,NULL
1648075484,ea4822a528ee3bb453e635d65811542e,PennController,41,0,trial_1_no_cue_DOWN,NULL,PennController,44,_Header_,End,1648074967126,CRYSTAL_5,neutral-right.png,3,NULL
1648075484,ea4822a528ee3bb453e635d65811542e,PennController,41,0,trial_1_no_cue_DOWN,NULL,Canvas,center,Print,NA,1648074968948,CRYSTAL_5,neutral-right.png,3,NULL
1648075484,ea4822a528ee3bb453e635d65811542e,PennController,41,0,trial_1_no_cue_DOWN,NULL,Key,keypress1,Key,NA,Never,CRYSTAL_5,neutral-right.png,3,(failed keypresses happened)
1648075484,ea4822a528ee3bb453e635d65811542e,PennController,41,0,trial_1_no_cue_DOWN,NULL,PennController,44,_Trial_,End,1648074971852,CRYSTAL_5,neutral-right.png,3,NULL
1648075484,ea4822a528ee3bb453e635d65811542e,PennController,80,0,trial_4_spatial_cue_DOWN,NULL,PennController,83,_Trial_,Start,1648074971854,CRYSTAL_5,neutral-left.png,6,NULL
1648075484,ea4822a528ee3bb453e635d65811542e,PennController,80,0,trial_4_spatial_cue_DOWN,NULL,PennController,83,_Header_,Start,1648074971854,CRYSTAL_5,neutral-left.png,6,NULL
1648075484,ea4822a528ee3bb453e635d65811542e,PennController,80,0,trial_4_spatial_cue_DOWN,NULL,PennController,83,_Header_,End,1648074971854,CRYSTAL_5,neutral-left.png,6,NULL
1648075484,ea4822a528ee3bb453e635d65811542e,PennController,80,0,trial_4_spatial_cue_DOWN,NULL,Canvas,center,Print,NA,1648074973782,CRYSTAL_5,neutral-left.png,6,NULL
1648075484,ea4822a528ee3bb453e635d65811542e,PennController,80,0,trial_4_spatial_cue_DOWN,NULL,Key,keypress1,PressedKey,K,1648074973931,CRYSTAL_5,neutral-left.png,6,NULL
1648075484,ea4822a528ee3bb453e635d65811542e,PennController,80,0,trial_4_spatial_cue_DOWN,NULL,PennController,83,_Trial_,End,1648074975857,CRYSTAL_5,neutral-left.png,6,NULL
1648075484,ea4822a528ee3bb453e635d65811542e,PennController,65,0,trial_3_double_cue_DOWN,NULL,PennController,68,_Trial_,Start,1648074975859,CRYSTAL_5,neutral-right.png,3,NULL
1648075484,ea4822a528ee3bb453e635d65811542e,PennController,65,0,trial_3_double_cue_DOWN,NULL,PennController,68,_Header_,Start,1648074975859,CRYSTAL_5,neutral-right.png,3,NULL
1648075484,ea4822a528ee3bb453e635d65811542e,PennController,65,0,trial_3_double_cue_DOWN,NULL,PennController,68,_Header_,End,1648074975859,CRYSTAL_5,neutral-right.png,3,NULL
1648075484,ea4822a528ee3bb453e635d65811542e,PennController,65,0,trial_3_double_cue_DOWN,NULL,Canvas,center,Print,NA,1648074977124,CRYSTAL_5,neutral-right.png,3,NULL
1648075484,ea4822a528ee3bb453e635d65811542e,PennController,65,0,trial_3_double_cue_DOWN,NULL,Key,keypress1,PressedKey,K,1648074977459,CRYSTAL_5,neutral-right.png,3,NULL
1648075484,ea4822a528ee3bb453e635d65811542e,PennController,65,0,trial_3_double_cue_DOWN,NULL,PennController,68,_Trial_,End,1648074979864,CRYSTAL_5,neutral-right.png,3,NULL
1648075484,ea4822a528ee3bb453e635d65811542e,PennController,54,0,trial_2_center_cue_DOWN,NULL,PennController,57,_Trial_,Start,1648074979865,CRYSTAL_5,cong-left.png,4,NULL
1648075484,ea4822a528ee3bb453e635d65811542e,PennController,54,0,trial_2_center_cue_DOWN,NULL,PennController,57,_Header_,Start,1648074979865,CRYSTAL_5,cong-left.png,4,NULL
1648075484,ea4822a528ee3bb453e635d65811542e,PennController,54,0,trial_2_center_cue_DOWN,NULL,PennController,57,_Header_,End,1648074979866,CRYSTAL_5,cong-left.png,4,NULL
1648075484,ea4822a528ee3bb453e635d65811542e,PennController,54,0,trial_2_center_cue_DOWN,NULL,Canvas,center,Print,NA,1648074981666,CRYSTAL_5,cong-left.png,4,NULL
1648075484,ea4822a528ee3bb453e635d65811542e,PennController,54,0,trial_2_center_cue_DOWN,NULL,Key,keypress1,PressedKey,K,1648074981901,CRYSTAL_5,cong-left.png,4,NULL
1648075484,ea4822a528ee3bb453e635d65811542e,PennController,54,0,trial_2_center_cue_DOWN,NULL,PennController,57,_Trial_,End,1648074983871,CRYSTAL_5,cong-left.png,4,NULL
1648075484,ea4822a528ee3bb453e635d65811542e,PennController,74,0,trial_4_spatial_cue_UP,NULL,PennController,77,_Trial_,Start,1648074983874,CRYSTAL_5,neutral-left.png,6,NULL
1648075484,ea4822a528ee3bb453e635d65811542e,PennController,74,0,trial_4_spatial_cue_UP,NULL,PennController,77,_Header_,Start,1648074983874,CRYSTAL_5,neutral-left.png,6,NULL
1648075484,ea4822a528ee3bb453e635d65811542e,PennController,74,0,trial_4_spatial_cue_UP,NULL,PennController,77,_Header_,End,1648074983874,CRYSTAL_5,neutral-left.png,6,NULL
1648075484,ea4822a528ee3bb453e635d65811542e,PennController,74,0,trial_4_spatial_cue_UP,NULL,Canvas,center,Print,NA,1648074985149,CRYSTAL_5,neutral-left.png,6,NULL
1648075484,ea4822a528ee3bb453e635d65811542e,PennController,74,0,trial_4_spatial_cue_UP,NULL,Key,keypress1,Key,NA,Never,CRYSTAL_5,neutral-left.png,6,NULL
1648075484,ea4822a528ee3bb453e635d65811542e,PennController,74,0,trial_4_spatial_cue_UP,NULL,PennController,77,_Trial_,End,1648074987877,CRYSTAL_5,neutral-left.png,6,NULL
1648075484,ea4822a528ee3bb453e635d65811542e,PennController,59,0,trial_3_double_cue_UP,NULL,PennController,62,_Trial_,Start,1648074987879,CRYSTAL_5,neutral-right.png,3,NULL
1648075484,ea4822a528ee3bb453e635d65811542e,PennController,59,0,trial_3_double_cue_UP,NULL,PennController,62,_Header_,Start,1648074987879,CRYSTAL_5,neutral-right.png,3,NULL
1648075484,ea4822a528ee3bb453e635d65811542e,PennController,59,0,trial_3_double_cue_UP,NULL,PennController,62,_Header_,End,1648074987879,CRYSTAL_5,neutral-right.png,3,NULL
1648075484,ea4822a528ee3bb453e635d65811542e,PennController,59,0,trial_3_double_cue_UP,NULL,Canvas,center,Print,NA,1648074989281,CRYSTAL_5,neutral-right.png,3,NULL
1648075484,ea4822a528ee3bb453e635d65811542e,PennController,59,0,trial_3_double_cue_UP,NULL,Key,keypress1,PressedKey,K,1648074989407,CRYSTAL_5,neutral-right.png,3,NULL
1648075484,ea4822a528ee3bb453e635d65811542e,PennController,59,0,trial_3_double_cue_UP,NULL,PennController,62,_Trial_,End,1648074991883,CRYSTAL_5,neutral-right.png,3,NULL
1648075484,ea4822a528ee3bb453e635d65811542e,PennController,35,0,trial_1_no_cue_UP,NULL,PennController,38,_Trial_,Start,1648074991885,CRYSTAL_5,neutral-right.png,3,NULL
1648075484,ea4822a528ee3bb453e635d65811542e,PennController,35,0,trial_1_no_cue_UP,NULL,PennController,38,_Header_,Start,1648074991885,CRYSTAL_5,neutral-right.png,3,NULL
1648075484,ea4822a528ee3bb453e635d65811542e,PennController,35,0,trial_1_no_cue_UP,NULL,PennController,38,_Header_,End,1648074991885,CRYSTAL_5,neutral-right.png,3,NULL
1648075484,ea4822a528ee3bb453e635d65811542e,PennController,35,0,trial_1_no_cue_UP,NULL,Canvas,center,Print,NA,1648074993122,CRYSTAL_5,neutral-right.png,3,NULL
1648075484,ea4822a528ee3bb453e635d65811542e,PennController,35,0,trial_1_no_cue_UP,NULL,Key,keypress1,PressedKey,K,1648074994437,CRYSTAL_5,neutral-right.png,3,NULL
1648075484,ea4822a528ee3bb453e635d65811542e,PennController,35,0,trial_1_no_cue_UP,NULL,PennController,38,_Trial_,End,1648074996943,CRYSTAL_5,neutral-right.png,3,NULL
1648075484,ea4822a528ee3bb453e635d65811542e,PennController,47,0,trial_2_center_cue_UP,NULL,PennController,50,_Trial_,Start,1648074996946,CRYSTAL_5,neutral-right.png,3,NULL
1648075484,ea4822a528ee3bb453e635d65811542e,PennController,47,0,trial_2_center_cue_UP,NULL,PennController,50,_Header_,Start,1648074996946,CRYSTAL_5,neutral-right.png,3,NULL
1648075484,ea4822a528ee3bb453e635d65811542e,PennController,47,0,trial_2_center_cue_UP,NULL,PennController,50,_Header_,End,1648074996946,CRYSTAL_5,neutral-right.png,3,NULL
1648075484,ea4822a528ee3bb453e635d65811542e,PennController,47,0,trial_2_center_cue_UP,NULL,Canvas,center,Print,NA,1648074998708,CRYSTAL_5,neutral-right.png,3,NULL
1648075484,ea4822a528ee3bb453e635d65811542e,PennController,47,0,trial_2_center_cue_UP,NULL,Key,keypress1,PressedKey,K,1648074999357,CRYSTAL_5,neutral-right.png,3,NULL
1648075484,ea4822a528ee3bb453e635d65811542e,PennController,47,0,trial_2_center_cue_UP,NULL,PennController,50,_Trial_,End,1648075000950,CRYSTAL_5,neutral-right.png,3,NULL
1648075484,ea4822a528ee3bb453e635d65811542e,PennController,44,0,trial_1_no_cue_DOWN,NULL,PennController,47,_Trial_,Start,1648075000952,CRYSTAL_5,neutral-left.png,6,NULL
1648075484,ea4822a528ee3bb453e635d65811542e,PennController,44,0,trial_1_no_cue_DOWN,NULL,PennController,47,_Header_,Start,1648075000952,CRYSTAL_5,neutral-left.png,6,NULL
1648075484,ea4822a528ee3bb453e635d65811542e,PennController,44,0,trial_1_no_cue_DOWN,NULL,PennController,47,_Header_,End,1648075000952,CRYSTAL_5,neutral-left.png,6,NULL
1648075484,ea4822a528ee3bb453e635d65811542e,PennController,44,0,trial_1_no_cue_DOWN,NULL,Canvas,center,Print,NA,1648075002973,CRYSTAL_5,neutral-left.png,6,NULL
1648075484,ea4822a528ee3bb453e635d65811542e,PennController,44,0,trial_1_no_cue_DOWN,NULL,Key,keypress1,Key,NA,Never,CRYSTAL_5,neutral-left.png,6,NULL
1648075484,ea4822a528ee3bb453e635d65811542e,PennController,44,0,trial_1_no_cue_DOWN,NULL,PennController,47,_Trial_,End,1648075007178,CRYSTAL_5,neutral-left.png,6,NULL
1648075484,ea4822a528ee3bb453e635d65811542e,PennController,79,0,trial_4_spatial_cue_DOWN,NULL,PennController,82,_Trial_,Start,1648075007179,CRYSTAL_5,incong-left.png,5,NULL
1648075484,ea4822a528ee3bb453e635d65811542e,PennController,79,0,trial_4_spatial_cue_DOWN,NULL,PennController,82,_Header_,Start,1648075007179,CRYSTAL_5,incong-left.png,5,NULL
1648075484,ea4822a528ee3bb453e635d65811542e,PennController,79,0,trial_4_spatial_cue_DOWN,NULL,PennController,82,_Header_,End,1648075007179,CRYSTAL_5,incong-left.png,5,NULL
1648075484,ea4822a528ee3bb453e635d65811542e,PennController,79,0,trial_4_spatial_cue_DOWN,NULL,Canvas,center,Print,NA,1648075008496,CRYSTAL_5,incong-left.png,5,NULL
1648075484,ea4822a528ee3bb453e635d65811542e,PennController,79,0,trial_4_spatial_cue_DOWN,NULL,Key,keypress1,PressedKey,K,1648075008948,CRYSTAL_5,incong-left.png,5,NULL
1648075484,ea4822a528ee3bb453e635d65811542e,PennController,79,0,trial_4_spatial_cue_DOWN,NULL,PennController,82,_Trial_,End,1648075011181,CRYSTAL_5,incong-left.png,5,NULL
1648075484,ea4822a528ee3bb453e635d65811542e,PennController,63,0,trial_3_double_cue_DOWN,NULL,PennController,66,_Trial_,Start,1648075011183,CRYSTAL_5,cong-right.png,1,NULL
1648075484,ea4822a528ee3bb453e635d65811542e,PennController,63,0,trial_3_double_cue_DOWN,NULL,PennController,66,_Header_,Start,1648075011183,CRYSTAL_5,cong-right.png,1,NULL
1648075484,ea4822a528ee3bb453e635d65811542e,PennController,63,0,trial_3_double_cue_DOWN,NULL,PennController,66,_Header_,End,1648075011183,CRYSTAL_5,cong-right.png,1,NULL
1648075484,ea4822a528ee3bb453e635d65811542e,PennController,63,0,trial_3_double_cue_DOWN,NULL,Canvas,center,Print,NA,1648075012161,CRYSTAL_5,cong-right.png,1,NULL
1648075484,ea4822a528ee3bb453e635d65811542e,PennController,63,0,trial_3_double_cue_DOWN,NULL,Key,keypress1,PressedKey,K,1648075012418,CRYSTAL_5,cong-right.png,1,NULL
1648075484,ea4822a528ee3bb453e635d65811542e,PennController,63,0,trial_3_double_cue_DOWN,NULL,PennController,66,_Trial_,End,1648075015184,CRYSTAL_5,cong-right.png,1,NULL
1648075484,ea4822a528ee3bb453e635d65811542e,PennController,56,0,trial_2_center_cue_DOWN,NULL,PennController,59,_Trial_,Start,1648075015187,CRYSTAL_5,neutral-left.png,6,NULL
1648075484,ea4822a528ee3bb453e635d65811542e,PennController,56,0,trial_2_center_cue_DOWN,NULL,PennController,59,_Header_,Start,1648075015187,CRYSTAL_5,neutral-left.png,6,NULL
1648075484,ea4822a528ee3bb453e635d65811542e,PennController,56,0,trial_2_center_cue_DOWN,NULL,PennController,59,_Header_,End,1648075015187,CRYSTAL_5,neutral-left.png,6,NULL
1648075484,ea4822a528ee3bb453e635d65811542e,PennController,56,0,trial_2_center_cue_DOWN,NULL,Canvas,center,Print,NA,1648075016174,CRYSTAL_5,neutral-left.png,6,NULL
1648075484,ea4822a528ee3bb453e635d65811542e,PennController,56,0,trial_2_center_cue_DOWN,NULL,Key,keypress1,PressedKey,K,1648075016778,CRYSTAL_5,neutral-left.png,6,NULL
1648075484,ea4822a528ee3bb453e635d65811542e,PennController,56,0,trial_2_center_cue_DOWN,NULL,PennController,59,_Trial_,End,1648075019190,CRYSTAL_5,neutral-left.png,6,NULL
1648075484,ea4822a528ee3bb453e635d65811542e,PennController,72,0,trial_4_spatial_cue_UP,NULL,PennController,75,_Trial_,Start,1648075019193,CRYSTAL_5,cong-left.png,4,NULL
1648075484,ea4822a528ee3bb453e635d65811542e,PennController,72,0,trial_4_spatial_cue_UP,NULL,PennController,75,_Header_,Start,1648075019193,CRYSTAL_5,cong-left.png,4,NULL
1648075484,ea4822a528ee3bb453e635d65811542e,PennController,72,0,trial_4_spatial_cue_UP,NULL,PennController,75,_Header_,End,1648075019193,CRYSTAL_5,cong-left.png,4,NULL
1648075484,ea4822a528ee3bb453e635d65811542e,PennController,72,0,trial_4_spatial_cue_UP,NULL,Canvas,center,Print,NA,1648075020534,CRYSTAL_5,cong-left.png,4,NULL
1648075484,ea4822a528ee3bb453e635d65811542e,PennController,72,0,trial_4_spatial_cue_UP,NULL,Key,keypress1,PressedKey,K,1648075021148,CRYSTAL_5,cong-left.png,4,NULL
1648075484,ea4822a528ee3bb453e635d65811542e,PennController,72,0,trial_4_spatial_cue_UP,NULL,PennController,75,_Trial_,End,1648075023195,CRYSTAL_5,cong-left.png,4,NULL
1648075484,ea4822a528ee3bb453e635d65811542e,PennController,60,0,trial_3_double_cue_UP,NULL,PennController,63,_Trial_,Start,1648075023198,CRYSTAL_5,cong-left.png,4,NULL
1648075484,ea4822a528ee3bb453e635d65811542e,PennController,60,0,trial_3_double_cue_UP,NULL,PennController,63,_Header_,Start,1648075023198,CRYSTAL_5,cong-left.png,4,NULL
1648075484,ea4822a528ee3bb453e635d65811542e,PennController,60,0,trial_3_double_cue_UP,NULL,PennController,63,_Header_,End,1648075023198,CRYSTAL_5,cong-left.png,4,NULL
1648075484,ea4822a528ee3bb453e635d65811542e,PennController,60,0,trial_3_double_cue_UP,NULL,Canvas,center,Print,NA,1648075024795,CRYSTAL_5,cong-left.png,4,NULL
1648075484,ea4822a528ee3bb453e635d65811542e,PennController,60,0,trial_3_double_cue_UP,NULL,Key,keypress1,Key,NA,Never,CRYSTAL_5,cong-left.png,4,NULL
1648075484,ea4822a528ee3bb453e635d65811542e,PennController,60,0,trial_3_double_cue_UP,NULL,PennController,63,_Trial_,End,1648075027202,CRYSTAL_5,cong-left.png,4,NULL
1648075484,ea4822a528ee3bb453e635d65811542e,PennController,38,0,trial_1_no_cue_UP,NULL,PennController,41,_Trial_,Start,1648075027204,CRYSTAL_5,neutral-left.png,6,NULL
1648075484,ea4822a528ee3bb453e635d65811542e,PennController,38,0,trial_1_no_cue_UP,NULL,PennController,41,_Header_,Start,1648075027204,CRYSTAL_5,neutral-left.png,6,NULL
1648075484,ea4822a528ee3bb453e635d65811542e,PennController,38,0,trial_1_no_cue_UP,NULL,PennController,41,_Header_,End,1648075027204,CRYSTAL_5,neutral-left.png,6,NULL
1648075484,ea4822a528ee3bb453e635d65811542e,PennController,38,0,trial_1_no_cue_UP,NULL,Canvas,center,Print,NA,1648075028612,CRYSTAL_5,neutral-left.png,6,NULL
1648075484,ea4822a528ee3bb453e635d65811542e,PennController,38,0,trial_1_no_cue_UP,NULL,Key,keypress1,PressedKey,K,1648075028880,CRYSTAL_5,neutral-left.png,6,NULL
1648075484,ea4822a528ee3bb453e635d65811542e,PennController,38,0,trial_1_no_cue_UP,NULL,PennController,41,_Trial_,End,1648075031385,CRYSTAL_5,neutral-left.png,6,NULL
1648075484,ea4822a528ee3bb453e635d65811542e,PennController,50,0,trial_2_center_cue_UP,NULL,PennController,53,_Trial_,Start,1648075031387,CRYSTAL_5,neutral-left.png,6,NULL
1648075484,ea4822a528ee3bb453e635d65811542e,PennController,50,0,trial_2_center_cue_UP,NULL,PennController,53,_Header_,Start,1648075031387,CRYSTAL_5,neutral-left.png,6,NULL
1648075484,ea4822a528ee3bb453e635d65811542e,PennController,50,0,trial_2_center_cue_UP,NULL,PennController,53,_Header_,End,1648075031387,CRYSTAL_5,neutral-left.png,6,NULL
1648075484,ea4822a528ee3bb453e635d65811542e,PennController,50,0,trial_2_center_cue_UP,NULL,Canvas,center,Print,NA,1648075032657,CRYSTAL_5,neutral-left.png,6,NULL
1648075484,ea4822a528ee3bb453e635d65811542e,PennController,50,0,trial_2_center_cue_UP,NULL,Key,keypress1,PressedKey,S,1648075033559,CRYSTAL_5,neutral-left.png,6,NULL
1648075484,ea4822a528ee3bb453e635d65811542e,PennController,50,0,trial_2_center_cue_UP,NULL,PennController,53,_Trial_,End,1648075035390,CRYSTAL_5,neutral-left.png,6,NULL
1648075484,ea4822a528ee3bb453e635d65811542e,PennController,42,0,trial_1_no_cue_DOWN,NULL,PennController,45,_Trial_,Start,1648075035392,CRYSTAL_5,cong-left.png,4,NULL
1648075484,ea4822a528ee3bb453e635d65811542e,PennController,42,0,trial_1_no_cue_DOWN,NULL,PennController,45,_Header_,Start,1648075035392,CRYSTAL_5,cong-left.png,4,NULL
1648075484,ea4822a528ee3bb453e635d65811542e,PennController,42,0,trial_1_no_cue_DOWN,NULL,PennController,45,_Header_,End,1648075035392,CRYSTAL_5,cong-left.png,4,NULL
1648075484,ea4822a528ee3bb453e635d65811542e,PennController,42,0,trial_1_no_cue_DOWN,NULL,Canvas,center,Print,NA,1648075037141,CRYSTAL_5,cong-left.png,4,NULL
1648075484,ea4822a528ee3bb453e635d65811542e,PennController,42,0,trial_1_no_cue_DOWN,NULL,Key,keypress1,Key,NA,Never,CRYSTAL_5,cong-left.png,4,(failed keypresses happened)
1648075484,ea4822a528ee3bb453e635d65811542e,PennController,42,0,trial_1_no_cue_DOWN,NULL,PennController,45,_Trial_,End,1648075040675,CRYSTAL_5,cong-left.png,4,NULL
1648075484,ea4822a528ee3bb453e635d65811542e,PennController,78,0,trial_4_spatial_cue_DOWN,NULL,PennController,81,_Trial_,Start,1648075040677,CRYSTAL_5,cong-left.png,4,NULL
1648075484,ea4822a528ee3bb453e635d65811542e,PennController,78,0,trial_4_spatial_cue_DOWN,NULL,PennController,81,_Header_,Start,1648075040677,CRYSTAL_5,cong-left.png,4,NULL
1648075484,ea4822a528ee3bb453e635d65811542e,PennController,78,0,trial_4_spatial_cue_DOWN,NULL,PennController,81,_Header_,End,1648075040677,CRYSTAL_5,cong-left.png,4,NULL
1648075484,ea4822a528ee3bb453e635d65811542e,PennController,78,0,trial_4_spatial_cue_DOWN,NULL,Canvas,center,Print,NA,1648075042209,CRYSTAL_5,cong-left.png,4,NULL
1648075484,ea4822a528ee3bb453e635d65811542e,PennController,78,0,trial_4_spatial_cue_DOWN,NULL,Key,keypress1,PressedKey,S,1648075042513,CRYSTAL_5,cong-left.png,4,NULL
1648075484,ea4822a528ee3bb453e635d65811542e,PennController,78,0,trial_4_spatial_cue_DOWN,NULL,PennController,81,_Trial_,End,1648075044679,CRYSTAL_5,cong-left.png,4,NULL
1648075484,ea4822a528ee3bb453e635d65811542e,PennController,64,0,trial_3_double_cue_DOWN,NULL,PennController,67,_Trial_,Start,1648075044681,CRYSTAL_5,incong-right.png,2,NULL
1648075484,ea4822a528ee3bb453e635d65811542e,PennController,64,0,trial_3_double_cue_DOWN,NULL,PennController,67,_Header_,Start,1648075044681,CRYSTAL_5,incong-right.png,2,NULL
1648075484,ea4822a528ee3bb453e635d65811542e,PennController,64,0,trial_3_double_cue_DOWN,NULL,PennController,67,_Header_,End,1648075044681,CRYSTAL_5,incong-right.png,2,NULL
1648075484,ea4822a528ee3bb453e635d65811542e,PennController,64,0,trial_3_double_cue_DOWN,NULL,Canvas,center,Print,NA,1648075046733,CRYSTAL_5,incong-right.png,2,NULL
1648075484,ea4822a528ee3bb453e635d65811542e,PennController,64,0,trial_3_double_cue_DOWN,NULL,Key,keypress1,PressedKey,S,1648075046938,CRYSTAL_5,incong-right.png,2,NULL
1648075484,ea4822a528ee3bb453e635d65811542e,PennController,64,0,trial_3_double_cue_DOWN,NULL,PennController,67,_Trial_,End,1648075048685,CRYSTAL_5,incong-right.png,2,NULL
1648075484,ea4822a528ee3bb453e635d65811542e,PennController,55,0,trial_2_center_cue_DOWN,NULL,PennController,58,_Trial_,Start,1648075048686,CRYSTAL_5,incong-left.png,5,NULL
1648075484,ea4822a528ee3bb453e635d65811542e,PennController,55,0,trial_2_center_cue_DOWN,NULL,PennController,58,_Header_,Start,1648075048686,CRYSTAL_5,incong-left.png,5,NULL
1648075484,ea4822a528ee3bb453e635d65811542e,PennController,55,0,trial_2_center_cue_DOWN,NULL,PennController,58,_Header_,End,1648075048686,CRYSTAL_5,incong-left.png,5,NULL
1648075484,ea4822a528ee3bb453e635d65811542e,PennController,55,0,trial_2_center_cue_DOWN,NULL,Canvas,center,Print,NA,1648075050348,CRYSTAL_5,incong-left.png,5,NULL
1648075484,ea4822a528ee3bb453e635d65811542e,PennController,55,0,trial_2_center_cue_DOWN,NULL,Key,keypress1,PressedKey,S,1648075050616,CRYSTAL_5,incong-left.png,5,NULL
1648075484,ea4822a528ee3bb453e635d65811542e,PennController,55,0,trial_2_center_cue_DOWN,NULL,PennController,58,_Trial_,End,1648075052688,CRYSTAL_5,incong-left.png,5,NULL
1648075484,ea4822a528ee3bb453e635d65811542e,PennController,73,0,trial_4_spatial_cue_UP,NULL,PennController,76,_Trial_,Start,1648075052690,CRYSTAL_5,incong-left.png,5,NULL
1648075484,ea4822a528ee3bb453e635d65811542e,PennController,73,0,trial_4_spatial_cue_UP,NULL,PennController,76,_Header_,Start,1648075052690,CRYSTAL_5,incong-left.png,5,NULL
1648075484,ea4822a528ee3bb453e635d65811542e,PennController,73,0,trial_4_spatial_cue_UP,NULL,PennController,76,_Header_,End,1648075052690,CRYSTAL_5,incong-left.png,5,NULL
1648075484,ea4822a528ee3bb453e635d65811542e,PennController,73,0,trial_4_spatial_cue_UP,NULL,Canvas,center,Print,NA,1648075054230,CRYSTAL_5,incong-left.png,5,NULL
1648075484,ea4822a528ee3bb453e635d65811542e,PennController,73,0,trial_4_spatial_cue_UP,NULL,Key,keypress1,PressedKey,S,1648075054447,CRYSTAL_5,incong-left.png,5,NULL
1648075484,ea4822a528ee3bb453e635d65811542e,PennController,73,0,trial_4_spatial_cue_UP,NULL,PennController,76,_Trial_,End,1648075056693,CRYSTAL_5,incong-left.png,5,NULL
1648075484,ea4822a528ee3bb453e635d65811542e,PennController,61,0,trial_3_double_cue_UP,NULL,PennController,64,_Trial_,Start,1648075056695,CRYSTAL_5,incong-left.png,5,NULL
1648075484,ea4822a528ee3bb453e635d65811542e,PennController,61,0,trial_3_double_cue_UP,NULL,PennController,64,_Header_,Start,1648075056695,CRYSTAL_5,incong-left.png,5,NULL
1648075484,ea4822a528ee3bb453e635d65811542e,PennController,61,0,trial_3_double_cue_UP,NULL,PennController,64,_Header_,End,1648075056695,CRYSTAL_5,incong-left.png,5,NULL
1648075484,ea4822a528ee3bb453e635d65811542e,PennController,61,0,trial_3_double_cue_UP,NULL,Canvas,center,Print,NA,1648075058082,CRYSTAL_5,incong-left.png,5,NULL
1648075484,ea4822a528ee3bb453e635d65811542e,PennController,61,0,trial_3_double_cue_UP,NULL,Key,keypress1,PressedKey,S,1648075058710,CRYSTAL_5,incong-left.png,5,NULL
1648075484,ea4822a528ee3bb453e635d65811542e,PennController,61,0,trial_3_double_cue_UP,NULL,PennController,64,_Trial_,End,1648075060698,CRYSTAL_5,incong-left.png,5,NULL
1648075484,ea4822a528ee3bb453e635d65811542e,PennController,36,0,trial_1_no_cue_UP,NULL,PennController,39,_Trial_,Start,1648075060699,CRYSTAL_5,cong-left.png,4,NULL
1648075484,ea4822a528ee3bb453e635d65811542e,PennController,36,0,trial_1_no_cue_UP,NULL,PennController,39,_Header_,Start,1648075060699,CRYSTAL_5,cong-left.png,4,NULL
1648075484,ea4822a528ee3bb453e635d65811542e,PennController,36,0,trial_1_no_cue_UP,NULL,PennController,39,_Header_,End,1648075060699,CRYSTAL_5,cong-left.png,4,NULL
1648075484,ea4822a528ee3bb453e635d65811542e,PennController,36,0,trial_1_no_cue_UP,NULL,Canvas,center,Print,NA,1648075062794,CRYSTAL_5,cong-left.png,4,NULL
1648075484,ea4822a528ee3bb453e635d65811542e,PennController,36,0,trial_1_no_cue_UP,NULL,Key,keypress1,PressedKey,S,1648075063032,CRYSTAL_5,cong-left.png,4,NULL
1648075484,ea4822a528ee3bb453e635d65811542e,PennController,36,0,trial_1_no_cue_UP,NULL,PennController,39,_Trial_,End,1648075065536,CRYSTAL_5,cong-left.png,4,NULL
1648075484,ea4822a528ee3bb453e635d65811542e,PennController,45,0,trial_2_center_cue_UP,NULL,PennController,48,_Trial_,Start,1648075065538,CRYSTAL_5,cong-right.png,1,NULL
1648075484,ea4822a528ee3bb453e635d65811542e,PennController,45,0,trial_2_center_cue_UP,NULL,PennController,48,_Header_,Start,1648075065538,CRYSTAL_5,cong-right.png,1,NULL
1648075484,ea4822a528ee3bb453e635d65811542e,PennController,45,0,trial_2_center_cue_UP,NULL,PennController,48,_Header_,End,1648075065538,CRYSTAL_5,cong-right.png,1,NULL
1648075484,ea4822a528ee3bb453e635d65811542e,PennController,45,0,trial_2_center_cue_UP,NULL,Canvas,center,Print,NA,1648075067023,CRYSTAL_5,cong-right.png,1,NULL
1648075484,ea4822a528ee3bb453e635d65811542e,PennController,45,0,trial_2_center_cue_UP,NULL,Key,keypress1,PressedKey,S,1648075068602,CRYSTAL_5,cong-right.png,1,NULL
1648075484,ea4822a528ee3bb453e635d65811542e,PennController,45,0,trial_2_center_cue_UP,NULL,PennController,48,_Trial_,End,1648075069541,CRYSTAL_5,cong-right.png,1,NULL
# 14. Comments.
1648075484,ea4822a528ee3bb453e635d65811542e,PennController,81,0,instructions_F,NULL,PennController,9,_Trial_,Start,1648075069543,CRYSTAL_5,NULL
1648075484,ea4822a528ee3bb453e635d65811542e,PennController,81,0,instructions_F,NULL,PennController,9,_Header_,Start,1648075069543,CRYSTAL_5,NULL
1648075484,ea4822a528ee3bb453e635d65811542e,PennController,81,0,instructions_F,NULL,PennController,9,_Header_,End,1648075069543,CRYSTAL_5,NULL
1648075484,ea4822a528ee3bb453e635d65811542e,PennController,81,0,instructions_F,NULL,PennController,9,_Trial_,End,1648075072181,CRYSTAL_5,NULL
1648075484,ea4822a528ee3bb453e635d65811542e,PennController,32,0,keyboard_warning_short,NULL,PennController,8,_Trial_,Start,1648075072182,CRYSTAL_5,NULL
1648075484,ea4822a528ee3bb453e635d65811542e,PennController,32,0,keyboard_warning_short,NULL,PennController,8,_Header_,Start,1648075072182,CRYSTAL_5,NULL
1648075484,ea4822a528ee3bb453e635d65811542e,PennController,32,0,keyboard_warning_short,NULL,PennController,8,_Header_,End,1648075072182,CRYSTAL_5,NULL
1648075484,ea4822a528ee3bb453e635d65811542e,PennController,32,0,keyboard_warning_short,NULL,PennController,8,_Trial_,End,1648075073683,CRYSTAL_5,NULL
# 14. imagens.
# 15. item.
# 16. Comments.
1648075484,ea4822a528ee3bb453e635d65811542e,PennController,55,0,trial_2_center_cue_DOWN,NULL,PennController,58,_Trial_,Start,1648075073684,CRYSTAL_5,incong-left.png,5,NULL
1648075484,ea4822a528ee3bb453e635d65811542e,PennController,55,0,trial_2_center_cue_DOWN,NULL,PennController,58,_Header_,Start,1648075073684,CRYSTAL_5,incong-left.png,5,NULL
1648075484,ea4822a528ee3bb453e635d65811542e,PennController,55,0,trial_2_center_cue_DOWN,NULL,PennController,58,_Header_,End,1648075073684,CRYSTAL_5,incong-left.png,5,NULL
1648075484,ea4822a528ee3bb453e635d65811542e,PennController,55,0,trial_2_center_cue_DOWN,NULL,Canvas,center,Print,NA,1648075075348,CRYSTAL_5,incong-left.png,5,NULL
1648075484,ea4822a528ee3bb453e635d65811542e,PennController,55,0,trial_2_center_cue_DOWN,NULL,Key,keypress1,PressedKey,K,1648075075492,CRYSTAL_5,incong-left.png,5,NULL
1648075484,ea4822a528ee3bb453e635d65811542e,PennController,55,0,trial_2_center_cue_DOWN,NULL,PennController,58,_Trial_,End,1648075077687,CRYSTAL_5,incong-left.png,5,NULL
1648075484,ea4822a528ee3bb453e635d65811542e,PennController,47,0,trial_2_center_cue_UP,NULL,PennController,50,_Trial_,Start,1648075077688,CRYSTAL_5,neutral-right.png,3,NULL
1648075484,ea4822a528ee3bb453e635d65811542e,PennController,47,0,trial_2_center_cue_UP,NULL,PennController,50,_Header_,Start,1648075077688,CRYSTAL_5,neutral-right.png,3,NULL
1648075484,ea4822a528ee3bb453e635d65811542e,PennController,47,0,trial_2_center_cue_UP,NULL,PennController,50,_Header_,End,1648075077689,CRYSTAL_5,neutral-right.png,3,NULL
1648075484,ea4822a528ee3bb453e635d65811542e,PennController,47,0,trial_2_center_cue_UP,NULL,Canvas,center,Print,NA,1648075079450,CRYSTAL_5,neutral-right.png,3,NULL
1648075484,ea4822a528ee3bb453e635d65811542e,PennController,47,0,trial_2_center_cue_UP,NULL,Key,keypress1,PressedKey,K,1648075079559,CRYSTAL_5,neutral-right.png,3,NULL
1648075484,ea4822a528ee3bb453e635d65811542e,PennController,47,0,trial_2_center_cue_UP,NULL,PennController,50,_Trial_,End,1648075081693,CRYSTAL_5,neutral-right.png,3,NULL
1648075484,ea4822a528ee3bb453e635d65811542e,PennController,77,0,trial_4_spatial_cue_DOWN,NULL,PennController,80,_Trial_,Start,1648075081695,CRYSTAL_5,neutral-right.png,3,NULL
1648075484,ea4822a528ee3bb453e635d65811542e,PennController,77,0,trial_4_spatial_cue_DOWN,NULL,PennController,80,_Header_,Start,1648075081695,CRYSTAL_5,neutral-right.png,3,NULL
1648075484,ea4822a528ee3bb453e635d65811542e,PennController,77,0,trial_4_spatial_cue_DOWN,NULL,PennController,80,_Header_,End,1648075081695,CRYSTAL_5,neutral-right.png,3,NULL
1648075484,ea4822a528ee3bb453e635d65811542e,PennController,77,0,trial_4_spatial_cue_DOWN,NULL,Canvas,center,Print,NA,1648075083070,CRYSTAL_5,neutral-right.png,3,NULL
1648075484,ea4822a528ee3bb453e635d65811542e,PennController,77,0,trial_4_spatial_cue_DOWN,NULL,Key,keypress1,PressedKey,K,1648075083579,CRYSTAL_5,neutral-right.png,3,NULL
1648075484,ea4822a528ee3bb453e635d65811542e,PennController,77,0,trial_4_spatial_cue_DOWN,NULL,PennController,80,_Trial_,End,1648075085697,CRYSTAL_5,neutral-right.png,3,NULL
1648075484,ea4822a528ee3bb453e635d65811542e,PennController,68,0,trial_3_double_cue_DOWN,NULL,PennController,71,_Trial_,Start,1648075085699,CRYSTAL_5,neutral-left.png,6,NULL
1648075484,ea4822a528ee3bb453e635d65811542e,PennController,68,0,trial_3_double_cue_DOWN,NULL,PennController,71,_Header_,Start,1648075085699,CRYSTAL_5,neutral-left.png,6,NULL
1648075484,ea4822a528ee3bb453e635d65811542e,PennController,68,0,trial_3_double_cue_DOWN,NULL,PennController,71,_Header_,End,1648075085699,CRYSTAL_5,neutral-left.png,6,NULL
1648075484,ea4822a528ee3bb453e635d65811542e,PennController,68,0,trial_3_double_cue_DOWN,NULL,Canvas,center,Print,NA,1648075086798,CRYSTAL_5,neutral-left.png,6,NULL
1648075484,ea4822a528ee3bb453e635d65811542e,PennController,68,0,trial_3_double_cue_DOWN,NULL,Key,keypress1,PressedKey,K,1648075086999,CRYSTAL_5,neutral-left.png,6,NULL
1648075484,ea4822a528ee3bb453e635d65811542e,PennController,68,0,trial_3_double_cue_DOWN,NULL,PennController,71,_Trial_,End,1648075089704,CRYSTAL_5,neutral-left.png,6,NULL
1648075484,ea4822a528ee3bb453e635d65811542e,PennController,44,0,trial_1_no_cue_DOWN,NULL,PennController,47,_Trial_,Start,1648075089705,CRYSTAL_5,neutral-left.png,6,NULL
1648075484,ea4822a528ee3bb453e635d65811542e,PennController,44,0,trial_1_no_cue_DOWN,NULL,PennController,47,_Header_,Start,1648075089705,CRYSTAL_5,neutral-left.png,6,NULL
1648075484,ea4822a528ee3bb453e635d65811542e,PennController,44,0,trial_1_no_cue_DOWN,NULL,PennController,47,_Header_,End,1648075089705,CRYSTAL_5,neutral-left.png,6,NULL
1648075484,ea4822a528ee3bb453e635d65811542e,PennController,44,0,trial_1_no_cue_DOWN,NULL,Canvas,center,Print,NA,1648075091728,CRYSTAL_5,neutral-left.png,6,NULL
1648075484,ea4822a528ee3bb453e635d65811542e,PennController,44,0,trial_1_no_cue_DOWN,NULL,Key,keypress1,Key,NA,Never,CRYSTAL_5,neutral-left.png,6,(failed keypresses happened)
1648075484,ea4822a528ee3bb453e635d65811542e,PennController,44,0,trial_1_no_cue_DOWN,NULL,PennController,47,_Trial_,End,1648075094969,CRYSTAL_5,neutral-left.png,6,NULL
1648075484,ea4822a528ee3bb453e635d65811542e,PennController,72,0,trial_4_spatial_cue_UP,NULL,PennController,75,_Trial_,Start,1648075094971,CRYSTAL_5,cong-left.png,4,NULL
1648075484,ea4822a528ee3bb453e635d65811542e,PennController,72,0,trial_4_spatial_cue_UP,NULL,PennController,75,_Header_,Start,1648075094971,CRYSTAL_5,cong-left.png,4,NULL
1648075484,ea4822a528ee3bb453e635d65811542e,PennController,72,0,trial_4_spatial_cue_UP,NULL,PennController,75,_Header_,End,1648075094971,CRYSTAL_5,cong-left.png,4,NULL
1648075484,ea4822a528ee3bb453e635d65811542e,PennController,72,0,trial_4_spatial_cue_UP,NULL,Canvas,center,Print,NA,1648075096317,CRYSTAL_5,cong-left.png,4,NULL
1648075484,ea4822a528ee3bb453e635d65811542e,PennController,72,0,trial_4_spatial_cue_UP,NULL,Key,keypress1,PressedKey,K,1648075097597,CRYSTAL_5,cong-left.png,4,NULL
1648075484,ea4822a528ee3bb453e635d65811542e,PennController,72,0,trial_4_spatial_cue_UP,NULL,PennController,75,_Trial_,End,1648075098973,CRYSTAL_5,cong-left.png,4,NULL
1648075484,ea4822a528ee3bb453e635d65811542e,PennController,35,0,trial_1_no_cue_UP,NULL,PennController,38,_Trial_,Start,1648075098975,CRYSTAL_5,neutral-right.png,3,NULL
1648075484,ea4822a528ee3bb453e635d65811542e,PennController,35,0,trial_1_no_cue_UP,NULL,PennController,38,_Header_,Start,1648075098975,CRYSTAL_5,neutral-right.png,3,NULL
1648075484,ea4822a528ee3bb453e635d65811542e,PennController,35,0,trial_1_no_cue_UP,NULL,PennController,38,_Header_,End,1648075098975,CRYSTAL_5,neutral-right.png,3,NULL
1648075484,ea4822a528ee3bb453e635d65811542e,PennController,35,0,trial_1_no_cue_UP,NULL,Canvas,center,Print,NA,1648075100209,CRYSTAL_5,neutral-right.png,3,NULL
1648075484,ea4822a528ee3bb453e635d65811542e,PennController,35,0,trial_1_no_cue_UP,NULL,Key,keypress1,Key,NA,Never,CRYSTAL_5,neutral-right.png,3,NULL
1648075484,ea4822a528ee3bb453e635d65811542e,PennController,35,0,trial_1_no_cue_UP,NULL,PennController,38,_Trial_,End,1648075104410,CRYSTAL_5,neutral-right.png,3,NULL
1648075484,ea4822a528ee3bb453e635d65811542e,PennController,59,0,trial_3_double_cue_UP,NULL,PennController,62,_Trial_,Start,1648075104412,CRYSTAL_5,neutral-right.png,3,NULL
1648075484,ea4822a528ee3bb453e635d65811542e,PennController,59,0,trial_3_double_cue_UP,NULL,PennController,62,_Header_,Start,1648075104412,CRYSTAL_5,neutral-right.png,3,NULL
1648075484,ea4822a528ee3bb453e635d65811542e,PennController,59,0,trial_3_double_cue_UP,NULL,PennController,62,_Header_,End,1648075104412,CRYSTAL_5,neutral-right.png,3,NULL
1648075484,ea4822a528ee3bb453e635d65811542e,PennController,59,0,trial_3_double_cue_UP,NULL,Canvas,center,Print,NA,1648075105814,CRYSTAL_5,neutral-right.png,3,NULL
1648075484,ea4822a528ee3bb453e635d65811542e,PennController,59,0,trial_3_double_cue_UP,NULL,Key,keypress1,PressedKey,K,1648075106050,CRYSTAL_5,neutral-right.png,3,NULL
1648075484,ea4822a528ee3bb453e635d65811542e,PennController,59,0,trial_3_double_cue_UP,NULL,PennController,62,_Trial_,End,1648075108416,CRYSTAL_5,neutral-right.png,3,NULL
1648075484,ea4822a528ee3bb453e635d65811542e,PennController,54,0,trial_2_center_cue_DOWN,NULL,PennController,57,_Trial_,Start,1648075108418,CRYSTAL_5,cong-left.png,4,NULL
1648075484,ea4822a528ee3bb453e635d65811542e,PennController,54,0,trial_2_center_cue_DOWN,NULL,PennController,57,_Header_,Start,1648075108418,CRYSTAL_5,cong-left.png,4,NULL
1648075484,ea4822a528ee3bb453e635d65811542e,PennController,54,0,trial_2_center_cue_DOWN,NULL,PennController,57,_Header_,End,1648075108418,CRYSTAL_5,cong-left.png,4,NULL
1648075484,ea4822a528ee3bb453e635d65811542e,PennController,54,0,trial_2_center_cue_DOWN,NULL,Canvas,center,Print,NA,1648075110217,CRYSTAL_5,cong-left.png,4,NULL
1648075484,ea4822a528ee3bb453e635d65811542e,PennController,54,0,trial_2_center_cue_DOWN,NULL,Key,keypress1,PressedKey,K,1648075110609,CRYSTAL_5,cong-left.png,4,NULL
1648075484,ea4822a528ee3bb453e635d65811542e,PennController,54,0,trial_2_center_cue_DOWN,NULL,PennController,57,_Trial_,End,1648075112422,CRYSTAL_5,cong-left.png,4,NULL
1648075484,ea4822a528ee3bb453e635d65811542e,PennController,45,0,trial_2_center_cue_UP,NULL,PennController,48,_Trial_,Start,1648075112424,CRYSTAL_5,cong-right.png,1,NULL
1648075484,ea4822a528ee3bb453e635d65811542e,PennController,45,0,trial_2_center_cue_UP,NULL,PennController,48,_Header_,Start,1648075112425,CRYSTAL_5,cong-right.png,1,NULL
1648075484,ea4822a528ee3bb453e635d65811542e,PennController,45,0,trial_2_center_cue_UP,NULL,PennController,48,_Header_,End,1648075112425,CRYSTAL_5,cong-right.png,1,NULL
1648075484,ea4822a528ee3bb453e635d65811542e,PennController,45,0,trial_2_center_cue_UP,NULL,Canvas,center,Print,NA,1648075113910,CRYSTAL_5,cong-right.png,1,NULL
1648075484,ea4822a528ee3bb453e635d65811542e,PennController,45,0,trial_2_center_cue_UP,NULL,Key,keypress1,PressedKey,K,1648075114436,CRYSTAL_5,cong-right.png,1,NULL
1648075484,ea4822a528ee3bb453e635d65811542e,PennController,45,0,trial_2_center_cue_UP,NULL,PennController,48,_Trial_,End,1648075116426,CRYSTAL_5,cong-right.png,1,NULL
1648075484,ea4822a528ee3bb453e635d65811542e,PennController,76,0,trial_4_spatial_cue_DOWN,NULL,PennController,79,_Trial_,Start,1648075116428,CRYSTAL_5,incong-right.png,2,NULL
1648075484,ea4822a528ee3bb453e635d65811542e,PennController,76,0,trial_4_spatial_cue_DOWN,NULL,PennController,79,_Header_,Start,1648075116428,CRYSTAL_5,incong-right.png,2,NULL
1648075484,ea4822a528ee3bb453e635d65811542e,PennController,76,0,trial_4_spatial_cue_DOWN,NULL,PennController,79,_Header_,End,1648075116428,CRYSTAL_5,incong-right.png,2,NULL
1648075484,ea4822a528ee3bb453e635d65811542e,PennController,76,0,trial_4_spatial_cue_DOWN,NULL,Canvas,center,Print,NA,1648075117677,CRYSTAL_5,incong-right.png,2,NULL
1648075484,ea4822a528ee3bb453e635d65811542e,PennController,76,0,trial_4_spatial_cue_DOWN,NULL,Key,keypress1,PressedKey,K,1648075118138,CRYSTAL_5,incong-right.png,2,NULL
1648075484,ea4822a528ee3bb453e635d65811542e,PennController,76,0,trial_4_spatial_cue_DOWN,NULL,PennController,79,_Trial_,End,1648075120434,CRYSTAL_5,incong-right.png,2,NULL
1648075484,ea4822a528ee3bb453e635d65811542e,PennController,65,0,trial_3_double_cue_DOWN,NULL,PennController,68,_Trial_,Start,1648075120435,CRYSTAL_5,neutral-right.png,3,NULL
1648075484,ea4822a528ee3bb453e635d65811542e,PennController,65,0,trial_3_double_cue_DOWN,NULL,PennController,68,_Header_,Start,1648075120435,CRYSTAL_5,neutral-right.png,3,NULL
1648075484,ea4822a528ee3bb453e635d65811542e,PennController,65,0,trial_3_double_cue_DOWN,NULL,PennController,68,_Header_,End,1648075120435,CRYSTAL_5,neutral-right.png,3,NULL
1648075484,ea4822a528ee3bb453e635d65811542e,PennController,65,0,trial_3_double_cue_DOWN,NULL,Canvas,center,Print,NA,1648075121689,CRYSTAL_5,neutral-right.png,3,NULL
1648075484,ea4822a528ee3bb453e635d65811542e,PennController,65,0,trial_3_double_cue_DOWN,NULL,Key,keypress1,PressedKey,K,1648075122050,CRYSTAL_5,neutral-right.png,3,NULL
1648075484,ea4822a528ee3bb453e635d65811542e,PennController,65,0,trial_3_double_cue_DOWN,NULL,PennController,68,_Trial_,End,1648075124438,CRYSTAL_5,neutral-right.png,3,NULL
1648075484,ea4822a528ee3bb453e635d65811542e,PennController,39,0,trial_1_no_cue_DOWN,NULL,PennController,42,_Trial_,Start,1648075124440,CRYSTAL_5,cong-right.png,1,NULL
1648075484,ea4822a528ee3bb453e635d65811542e,PennController,39,0,trial_1_no_cue_DOWN,NULL,PennController,42,_Header_,Start,1648075124440,CRYSTAL_5,cong-right.png,1,NULL
1648075484,ea4822a528ee3bb453e635d65811542e,PennController,39,0,trial_1_no_cue_DOWN,NULL,PennController,42,_Header_,End,1648075124440,CRYSTAL_5,cong-right.png,1,NULL
1648075484,ea4822a528ee3bb453e635d65811542e,PennController,39,0,trial_1_no_cue_DOWN,NULL,Canvas,center,Print,NA,1648075126294,CRYSTAL_5,cong-right.png,1,NULL
1648075484,ea4822a528ee3bb453e635d65811542e,PennController,39,0,trial_1_no_cue_DOWN,NULL,Key,keypress1,Key,NA,Never,CRYSTAL_5,cong-right.png,1,(failed keypresses happened)
1648075484,ea4822a528ee3bb453e635d65811542e,PennController,39,0,trial_1_no_cue_DOWN,NULL,PennController,42,_Trial_,End,1648075129163,CRYSTAL_5,cong-right.png,1,NULL
1648075484,ea4822a528ee3bb453e635d65811542e,PennController,69,0,trial_4_spatial_cue_UP,NULL,PennController,72,_Trial_,Start,1648075129165,CRYSTAL_5,cong-right.png,1,NULL
1648075484,ea4822a528ee3bb453e635d65811542e,PennController,69,0,trial_4_spatial_cue_UP,NULL,PennController,72,_Header_,Start,1648075129165,CRYSTAL_5,cong-right.png,1,NULL
1648075484,ea4822a528ee3bb453e635d65811542e,PennController,69,0,trial_4_spatial_cue_UP,NULL,PennController,72,_Header_,End,1648075129165,CRYSTAL_5,cong-right.png,1,NULL
1648075484,ea4822a528ee3bb453e635d65811542e,PennController,69,0,trial_4_spatial_cue_UP,NULL,Canvas,center,Print,NA,1648075130900,CRYSTAL_5,cong-right.png,1,NULL
1648075484,ea4822a528ee3bb453e635d65811542e,PennController,69,0,trial_4_spatial_cue_UP,NULL,Key,keypress1,PressedKey,K,1648075131359,CRYSTAL_5,cong-right.png,1,NULL
1648075484,ea4822a528ee3bb453e635d65811542e,PennController,69,0,trial_4_spatial_cue_UP,NULL,PennController,72,_Trial_,End,1648075133167,CRYSTAL_5,cong-right.png,1,NULL
1648075484,ea4822a528ee3bb453e635d65811542e,PennController,36,0,trial_1_no_cue_UP,NULL,PennController,39,_Trial_,Start,1648075133169,CRYSTAL_5,cong-left.png,4,NULL
1648075484,ea4822a528ee3bb453e635d65811542e,PennController,36,0,trial_1_no_cue_UP,NULL,PennController,39,_Header_,Start,1648075133169,CRYSTAL_5,cong-left.png,4,NULL
1648075484,ea4822a528ee3bb453e635d65811542e,PennController,36,0,trial_1_no_cue_UP,NULL,PennController,39,_Header_,End,1648075133169,CRYSTAL_5,cong-left.png,4,NULL
1648075484,ea4822a528ee3bb453e635d65811542e,PennController,36,0,trial_1_no_cue_UP,NULL,Canvas,center,Print,NA,1648075135264,CRYSTAL_5,cong-left.png,4,NULL
1648075484,ea4822a528ee3bb453e635d65811542e,PennController,36,0,trial_1_no_cue_UP,NULL,Key,keypress1,PressedKey,K,1648075135697,CRYSTAL_5,cong-left.png,4,NULL
1648075484,ea4822a528ee3bb453e635d65811542e,PennController,36,0,trial_1_no_cue_UP,NULL,PennController,39,_Trial_,End,1648075138203,CRYSTAL_5,cong-left.png,4,NULL
1648075484,ea4822a528ee3bb453e635d65811542e,PennController,61,0,trial_3_double_cue_UP,NULL,PennController,64,_Trial_,Start,1648075138205,CRYSTAL_5,incong-left.png,5,NULL
1648075484,ea4822a528ee3bb453e635d65811542e,PennController,61,0,trial_3_double_cue_UP,NULL,PennController,64,_Header_,Start,1648075138205,CRYSTAL_5,incong-left.png,5,NULL
1648075484,ea4822a528ee3bb453e635d65811542e,PennController,61,0,trial_3_double_cue_UP,NULL,PennController,64,_Header_,End,1648075138206,CRYSTAL_5,incong-left.png,5,NULL
1648075484,ea4822a528ee3bb453e635d65811542e,PennController,61,0,trial_3_double_cue_UP,NULL,Canvas,center,Print,NA,1648075139591,CRYSTAL_5,incong-left.png,5,NULL
1648075484,ea4822a528ee3bb453e635d65811542e,PennController,61,0,trial_3_double_cue_UP,NULL,Key,keypress1,PressedKey,K,1648075140650,CRYSTAL_5,incong-left.png,5,NULL
1648075484,ea4822a528ee3bb453e635d65811542e,PennController,61,0,trial_3_double_cue_UP,NULL,PennController,64,_Trial_,End,1648075142211,CRYSTAL_5,incong-left.png,5,NULL
1648075484,ea4822a528ee3bb453e635d65811542e,PennController,53,0,trial_2_center_cue_DOWN,NULL,PennController,56,_Trial_,Start,1648075142213,CRYSTAL_5,neutral-right.png,3,NULL
1648075484,ea4822a528ee3bb453e635d65811542e,PennController,53,0,trial_2_center_cue_DOWN,NULL,PennController,56,_Header_,Start,1648075142213,CRYSTAL_5,neutral-right.png,3,NULL
1648075484,ea4822a528ee3bb453e635d65811542e,PennController,53,0,trial_2_center_cue_DOWN,NULL,PennController,56,_Header_,End,1648075142213,CRYSTAL_5,neutral-right.png,3,NULL
1648075484,ea4822a528ee3bb453e635d65811542e,PennController,53,0,trial_2_center_cue_DOWN,NULL,Canvas,center,Print,NA,1648075144215,CRYSTAL_5,neutral-right.png,3,NULL
1648075484,ea4822a528ee3bb453e635d65811542e,PennController,53,0,trial_2_center_cue_DOWN,NULL,Key,keypress1,PressedKey,K,1648075144689,CRYSTAL_5,neutral-right.png,3,NULL
1648075484,ea4822a528ee3bb453e635d65811542e,PennController,53,0,trial_2_center_cue_DOWN,NULL,PennController,56,_Trial_,End,1648075146217,CRYSTAL_5,neutral-right.png,3,NULL
1648075484,ea4822a528ee3bb453e635d65811542e,PennController,50,0,trial_2_center_cue_UP,NULL,PennController,53,_Trial_,Start,1648075146219,CRYSTAL_5,neutral-left.png,6,NULL
1648075484,ea4822a528ee3bb453e635d65811542e,PennController,50,0,trial_2_center_cue_UP,NULL,PennController,53,_Header_,Start,1648075146219,CRYSTAL_5,neutral-left.png,6,NULL
1648075484,ea4822a528ee3bb453e635d65811542e,PennController,50,0,trial_2_center_cue_UP,NULL,PennController,53,_Header_,End,1648075146219,CRYSTAL_5,neutral-left.png,6,NULL
1648075484,ea4822a528ee3bb453e635d65811542e,PennController,50,0,trial_2_center_cue_UP,NULL,Canvas,center,Print,NA,1648075147486,CRYSTAL_5,neutral-left.png,6,NULL
1648075484,ea4822a528ee3bb453e635d65811542e,PennController,50,0,trial_2_center_cue_UP,NULL,Key,keypress1,PressedKey,K,1648075147938,CRYSTAL_5,neutral-left.png,6,NULL
1648075484,ea4822a528ee3bb453e635d65811542e,PennController,50,0,trial_2_center_cue_UP,NULL,PennController,53,_Trial_,End,1648075150222,CRYSTAL_5,neutral-left.png,6,NULL
1648075484,ea4822a528ee3bb453e635d65811542e,PennController,80,0,trial_4_spatial_cue_DOWN,NULL,PennController,83,_Trial_,Start,1648075150224,CRYSTAL_5,neutral-left.png,6,NULL
1648075484,ea4822a528ee3bb453e635d65811542e,PennController,80,0,trial_4_spatial_cue_DOWN,NULL,PennController,83,_Header_,Start,1648075150224,CRYSTAL_5,neutral-left.png,6,NULL
1648075484,ea4822a528ee3bb453e635d65811542e,PennController,80,0,trial_4_spatial_cue_DOWN,NULL,PennController,83,_Header_,End,1648075150224,CRYSTAL_5,neutral-left.png,6,NULL
1648075484,ea4822a528ee3bb453e635d65811542e,PennController,80,0,trial_4_spatial_cue_DOWN,NULL,Canvas,center,Print,NA,1648075152155,CRYSTAL_5,neutral-left.png,6,NULL
1648075484,ea4822a528ee3bb453e635d65811542e,PennController,80,0,trial_4_spatial_cue_DOWN,NULL,Key,keypress1,PressedKey,K,1648075152739,CRYSTAL_5,neutral-left.png,6,NULL
1648075484,ea4822a528ee3bb453e635d65811542e,PennController,80,0,trial_4_spatial_cue_DOWN,NULL,PennController,83,_Trial_,End,1648075154229,CRYSTAL_5,neutral-left.png,6,NULL
1648075484,ea4822a528ee3bb453e635d65811542e,PennController,64,0,trial_3_double_cue_DOWN,NULL,PennController,67,_Trial_,Start,1648075154231,CRYSTAL_5,incong-right.png,2,NULL
1648075484,ea4822a528ee3bb453e635d65811542e,PennController,64,0,trial_3_double_cue_DOWN,NULL,PennController,67,_Header_,Start,1648075154231,CRYSTAL_5,incong-right.png,2,NULL
1648075484,ea4822a528ee3bb453e635d65811542e,PennController,64,0,trial_3_double_cue_DOWN,NULL,PennController,67,_Header_,End,1648075154231,CRYSTAL_5,incong-right.png,2,NULL
1648075484,ea4822a528ee3bb453e635d65811542e,PennController,64,0,trial_3_double_cue_DOWN,NULL,Canvas,center,Print,NA,1648075156283,CRYSTAL_5,incong-right.png,2,NULL
1648075484,ea4822a528ee3bb453e635d65811542e,PennController,64,0,trial_3_double_cue_DOWN,NULL,Key,keypress1,PressedKey,K,1648075156685,CRYSTAL_5,incong-right.png,2,NULL
1648075484,ea4822a528ee3bb453e635d65811542e,PennController,64,0,trial_3_double_cue_DOWN,NULL,PennController,67,_Trial_,End,1648075158234,CRYSTAL_5,incong-right.png,2,NULL
1648075484,ea4822a528ee3bb453e635d65811542e,PennController,41,0,trial_1_no_cue_DOWN,NULL,PennController,44,_Trial_,Start,1648075158236,CRYSTAL_5,neutral-right.png,3,NULL
1648075484,ea4822a528ee3bb453e635d65811542e,PennController,41,0,trial_1_no_cue_DOWN,NULL,PennController,44,_Header_,Start,1648075158237,CRYSTAL_5,neutral-right.png,3,NULL
1648075484,ea4822a528ee3bb453e635d65811542e,PennController,41,0,trial_1_no_cue_DOWN,NULL,PennController,44,_Header_,End,1648075158237,CRYSTAL_5,neutral-right.png,3,NULL
1648075484,ea4822a528ee3bb453e635d65811542e,PennController,41,0,trial_1_no_cue_DOWN,NULL,Canvas,center,Print,NA,1648075160061,CRYSTAL_5,neutral-right.png,3,NULL
1648075484,ea4822a528ee3bb453e635d65811542e,PennController,41,0,trial_1_no_cue_DOWN,NULL,Key,keypress1,Key,NA,Never,CRYSTAL_5,neutral-right.png,3,(failed keypresses happened)
1648075484,ea4822a528ee3bb453e635d65811542e,PennController,41,0,trial_1_no_cue_DOWN,NULL,PennController,44,_Trial_,End,1648075163131,CRYSTAL_5,neutral-right.png,3,NULL
1648075484,ea4822a528ee3bb453e635d65811542e,PennController,73,0,trial_4_spatial_cue_UP,NULL,PennController,76,_Trial_,Start,1648075163132,CRYSTAL_5,incong-left.png,5,NULL
1648075484,ea4822a528ee3bb453e635d65811542e,PennController,73,0,trial_4_spatial_cue_UP,NULL,PennController,76,_Header_,Start,1648075163132,CRYSTAL_5,incong-left.png,5,NULL
1648075484,ea4822a528ee3bb453e635d65811542e,PennController,73,0,trial_4_spatial_cue_UP,NULL,PennController,76,_Header_,End,1648075163132,CRYSTAL_5,incong-left.png,5,NULL
1648075484,ea4822a528ee3bb453e635d65811542e,PennController,73,0,trial_4_spatial_cue_UP,NULL,Canvas,center,Print,NA,1648075164666,CRYSTAL_5,incong-left.png,5,NULL
1648075484,ea4822a528ee3bb453e635d65811542e,PennController,73,0,trial_4_spatial_cue_UP,NULL,Key,keypress1,PressedKey,K,1648075165717,CRYSTAL_5,incong-left.png,5,NULL
1648075484,ea4822a528ee3bb453e635d65811542e,PennController,73,0,trial_4_spatial_cue_UP,NULL,PennController,76,_Trial_,End,1648075167135,CRYSTAL_5,incong-left.png,5,NULL
1648075484,ea4822a528ee3bb453e635d65811542e,PennController,33,0,trial_1_no_cue_UP,NULL,PennController,36,_Trial_,Start,1648075167137,CRYSTAL_5,cong-right.png,1,NULL
1648075484,ea4822a528ee3bb453e635d65811542e,PennController,33,0,trial_1_no_cue_UP,NULL,PennController,36,_Header_,Start,1648075167137,CRYSTAL_5,cong-right.png,1,NULL
1648075484,ea4822a528ee3bb453e635d65811542e,PennController,33,0,trial_1_no_cue_UP,NULL,PennController,36,_Header_,End,1648075167137,CRYSTAL_5,cong-right.png,1,NULL
1648075484,ea4822a528ee3bb453e635d65811542e,PennController,33,0,trial_1_no_cue_UP,NULL,Canvas,center,Print,NA,1648075168245,CRYSTAL_5,cong-right.png,1,NULL
1648075484,ea4822a528ee3bb453e635d65811542e,PennController,33,0,trial_1_no_cue_UP,NULL,Key,keypress1,PressedKey,K,1648075169351,CRYSTAL_5,cong-right.png,1,NULL
1648075484,ea4822a528ee3bb453e635d65811542e,PennController,33,0,trial_1_no_cue_UP,NULL,PennController,36,_Trial_,End,1648075171855,CRYSTAL_5,cong-right.png,1,NULL
1648075484,ea4822a528ee3bb453e635d65811542e,PennController,62,0,trial_3_double_cue_UP,NULL,PennController,65,_Trial_,Start,1648075171856,CRYSTAL_5,neutral-left.png,6,NULL
1648075484,ea4822a528ee3bb453e635d65811542e,PennController,62,0,trial_3_double_cue_UP,NULL,PennController,65,_Header_,Start,1648075171856,CRYSTAL_5,neutral-left.png,6,NULL
1648075484,ea4822a528ee3bb453e635d65811542e,PennController,62,0,trial_3_double_cue_UP,NULL,PennController,65,_Header_,End,1648075171856,CRYSTAL_5,neutral-left.png,6,NULL
1648075484,ea4822a528ee3bb453e635d65811542e,PennController,62,0,trial_3_double_cue_UP,NULL,Canvas,center,Print,NA,1648075173291,CRYSTAL_5,neutral-left.png,6,NULL
1648075484,ea4822a528ee3bb453e635d65811542e,PennController,62,0,trial_3_double_cue_UP,NULL,Key,keypress1,PressedKey,K,1648075173884,CRYSTAL_5,neutral-left.png,6,NULL
1648075484,ea4822a528ee3bb453e635d65811542e,PennController,62,0,trial_3_double_cue_UP,NULL,PennController,65,_Trial_,End,1648075175858,CRYSTAL_5,neutral-left.png,6,NULL
1648075484,ea4822a528ee3bb453e635d65811542e,PennController,56,0,trial_2_center_cue_DOWN,NULL,PennController,59,_Trial_,Start,1648075175860,CRYSTAL_5,neutral-left.png,6,NULL
1648075484,ea4822a528ee3bb453e635d65811542e,PennController,56,0,trial_2_center_cue_DOWN,NULL,PennController,59,_Header_,Start,1648075175860,CRYSTAL_5,neutral-left.png,6,NULL
1648075484,ea4822a528ee3bb453e635d65811542e,PennController,56,0,trial_2_center_cue_DOWN,NULL,PennController,59,_Header_,End,1648075175860,CRYSTAL_5,neutral-left.png,6,NULL
1648075484,ea4822a528ee3bb453e635d65811542e,PennController,56,0,trial_2_center_cue_DOWN,NULL,Canvas,center,Print,NA,1648075176842,CRYSTAL_5,neutral-left.png,6,NULL
1648075484,ea4822a528ee3bb453e635d65811542e,PennController,56,0,trial_2_center_cue_DOWN,NULL,Key,keypress1,PressedKey,K,1648075177522,CRYSTAL_5,neutral-left.png,6,NULL
1648075484,ea4822a528ee3bb453e635d65811542e,PennController,56,0,trial_2_center_cue_DOWN,NULL,PennController,59,_Trial_,End,1648075179862,CRYSTAL_5,neutral-left.png,6,NULL
1648075484,ea4822a528ee3bb453e635d65811542e,PennController,49,0,trial_2_center_cue_UP,NULL,PennController,52,_Trial_,Start,1648075179864,CRYSTAL_5,incong-left.png,5,NULL
1648075484,ea4822a528ee3bb453e635d65811542e,PennController,49,0,trial_2_center_cue_UP,NULL,PennController,52,_Header_,Start,1648075179864,CRYSTAL_5,incong-left.png,5,NULL
1648075484,ea4822a528ee3bb453e635d65811542e,PennController,49,0,trial_2_center_cue_UP,NULL,PennController,52,_Header_,End,1648075179864,CRYSTAL_5,incong-left.png,5,NULL
1648075484,ea4822a528ee3bb453e635d65811542e,PennController,49,0,trial_2_center_cue_UP,NULL,Canvas,center,Print,NA,1648075181551,CRYSTAL_5,incong-left.png,5,NULL
1648075484,ea4822a528ee3bb453e635d65811542e,PennController,49,0,trial_2_center_cue_UP,NULL,Key,keypress1,PressedKey,K,1648075182151,CRYSTAL_5,incong-left.png,5,NULL
1648075484,ea4822a528ee3bb453e635d65811542e,PennController,49,0,trial_2_center_cue_UP,NULL,PennController,52,_Trial_,End,1648075183868,CRYSTAL_5,incong-left.png,5,NULL
1648075484,ea4822a528ee3bb453e635d65811542e,PennController,79,0,trial_4_spatial_cue_DOWN,NULL,PennController,82,_Trial_,Start,1648075183869,CRYSTAL_5,incong-left.png,5,NULL
1648075484,ea4822a528ee3bb453e635d65811542e,PennController,79,0,trial_4_spatial_cue_DOWN,NULL,PennController,82,_Header_,Start,1648075183869,CRYSTAL_5,incong-left.png,5,NULL
1648075484,ea4822a528ee3bb453e635d65811542e,PennController,79,0,trial_4_spatial_cue_DOWN,NULL,PennController,82,_Header_,End,1648075183869,CRYSTAL_5,incong-left.png,5,NULL
1648075484,ea4822a528ee3bb453e635d65811542e,PennController,79,0,trial_4_spatial_cue_DOWN,NULL,Canvas,center,Print,NA,1648075185188,CRYSTAL_5,incong-left.png,5,NULL
1648075484,ea4822a528ee3bb453e635d65811542e,PennController,79,0,trial_4_spatial_cue_DOWN,NULL,Key,keypress1,PressedKey,K,1648075185430,CRYSTAL_5,incong-left.png,5,NULL
1648075484,ea4822a528ee3bb453e635d65811542e,PennController,79,0,trial_4_spatial_cue_DOWN,NULL,PennController,82,_Trial_,End,1648075187873,CRYSTAL_5,incong-left.png,5,NULL
1648075484,ea4822a528ee3bb453e635d65811542e,PennController,66,0,trial_3_double_cue_DOWN,NULL,PennController,69,_Trial_,Start,1648075187875,CRYSTAL_5,cong-left.png,4,NULL
1648075484,ea4822a528ee3bb453e635d65811542e,PennController,66,0,trial_3_double_cue_DOWN,NULL,PennController,69,_Header_,Start,1648075187875,CRYSTAL_5,cong-left.png,4,NULL
1648075484,ea4822a528ee3bb453e635d65811542e,PennController,66,0,trial_3_double_cue_DOWN,NULL,PennController,69,_Header_,End,1648075187875,CRYSTAL_5,cong-left.png,4,NULL
1648075484,ea4822a528ee3bb453e635d65811542e,PennController,66,0,trial_3_double_cue_DOWN,NULL,Canvas,center,Print,NA,1648075189819,CRYSTAL_5,cong-left.png,4,NULL
1648075484,ea4822a528ee3bb453e635d65811542e,PennController,66,0,trial_3_double_cue_DOWN,NULL,Key,keypress1,PressedKey,K,1648075190033,CRYSTAL_5,cong-left.png,4,NULL
1648075484,ea4822a528ee3bb453e635d65811542e,PennController,66,0,trial_3_double_cue_DOWN,NULL,PennController,69,_Trial_,End,1648075191877,CRYSTAL_5,cong-left.png,4,NULL
1648075484,ea4822a528ee3bb453e635d65811542e,PennController,40,0,trial_1_no_cue_DOWN,NULL,PennController,43,_Trial_,Start,1648075191880,CRYSTAL_5,incong-right.png,2,NULL
1648075484,ea4822a528ee3bb453e635d65811542e,PennController,40,0,trial_1_no_cue_DOWN,NULL,PennController,43,_Header_,Start,1648075191880,CRYSTAL_5,incong-right.png,2,NULL
1648075484,ea4822a528ee3bb453e635d65811542e,PennController,40,0,trial_1_no_cue_DOWN,NULL,PennController,43,_Header_,End,1648075191880,CRYSTAL_5,incong-right.png,2,NULL
1648075484,ea4822a528ee3bb453e635d65811542e,PennController,40,0,trial_1_no_cue_DOWN,NULL,Canvas,center,Print,NA,1648075193992,CRYSTAL_5,incong-right.png,2,NULL
1648075484,ea4822a528ee3bb453e635d65811542e,PennController,40,0,trial_1_no_cue_DOWN,NULL,Key,keypress1,Key,NA,Never,CRYSTAL_5,incong-right.png,2,(failed keypresses happened)
1648075484,ea4822a528ee3bb453e635d65811542e,PennController,40,0,trial_1_no_cue_DOWN,NULL,PennController,43,_Trial_,End,1648075196911,CRYSTAL_5,incong-right.png,2,NULL
1648075484,ea4822a528ee3bb453e635d65811542e,PennController,71,0,trial_4_spatial_cue_UP,NULL,PennController,74,_Trial_,Start,1648075196913,CRYSTAL_5,neutral-right.png,3,NULL
1648075484,ea4822a528ee3bb453e635d65811542e,PennController,71,0,trial_4_spatial_cue_UP,NULL,PennController,74,_Header_,Start,1648075196913,CRYSTAL_5,neutral-right.png,3,NULL
1648075484,ea4822a528ee3bb453e635d65811542e,PennController,71,0,trial_4_spatial_cue_UP,NULL,PennController,74,_Header_,End,1648075196913,CRYSTAL_5,neutral-right.png,3,NULL
