#
# Results on Thu, 24 Mar 2022 22:32:19 GMT
# USER AGENT: Mozilla/5.0 (Windows NT 10.0; Win64; x64) AppleWebKit/537.36 (KHTML, like Gecko) Chrome/99.0.4844.82 Safari/537.36
# Design number was non-random = 0
#
# Columns below this comment are as follows:
# 1. Results reception time.
# 2. MD5 hash of participant's IP address.
# 3. Controller name.
# 4. Order number of item.
# 5. Inner element number.
# 6. Label.
# 7. Latin Square Group.
# 8. PennElementType.
# 9. PennElementName.
# 10. Parameter.
# 11. Value.
# 12. EventTime.
# 13. id.
# 14. Comments.
1648161139,ea4822a528ee3bb453e635d65811542e,PennController,0,0,instructions_A,NULL,PennController,0,_Trial_,Start,1648159649135,CRYSTAL,NULL
1648161139,ea4822a528ee3bb453e635d65811542e,PennController,0,0,instructions_A,NULL,PennController,0,_Header_,Start,1648159649135,CRYSTAL,NULL
1648161139,ea4822a528ee3bb453e635d65811542e,PennController,0,0,instructions_A,NULL,PennController,0,_Header_,End,1648159649135,CRYSTAL,NULL
1648161139,ea4822a528ee3bb453e635d65811542e,PennController,0,0,instructions_A,NULL,PennController,0,_Trial_,End,1648159653966,CRYSTAL,NULL
1648161139,ea4822a528ee3bb453e635d65811542e,PennController,1,0,instructions_B,NULL,PennController,1,_Trial_,Start,1648159653969,CRYSTAL,NULL
1648161139,ea4822a528ee3bb453e635d65811542e,PennController,1,0,instructions_B,NULL,PennController,1,_Header_,Start,1648159653969,CRYSTAL,NULL
1648161139,ea4822a528ee3bb453e635d65811542e,PennController,1,0,instructions_B,NULL,PennController,1,_Header_,End,1648159653969,CRYSTAL,NULL
1648161139,ea4822a528ee3bb453e635d65811542e,PennController,1,0,instructions_B,NULL,PennController,1,_Trial_,End,1648159654811,CRYSTAL,NULL
1648161139,ea4822a528ee3bb453e635d65811542e,PennController,2,0,instructions_C,NULL,PennController,2,_Trial_,Start,1648159654812,CRYSTAL,NULL
1648161139,ea4822a528ee3bb453e635d65811542e,PennController,2,0,instructions_C,NULL,PennController,2,_Header_,Start,1648159654812,CRYSTAL,NULL
1648161139,ea4822a528ee3bb453e635d65811542e,PennController,2,0,instructions_C,NULL,PennController,2,_Header_,End,1648159654812,CRYSTAL,NULL
1648161139,ea4822a528ee3bb453e635d65811542e,PennController,2,0,instructions_C,NULL,PennController,2,_Trial_,End,1648159655963,CRYSTAL,NULL
1648161139,ea4822a528ee3bb453e635d65811542e,PennController,3,0,instructions_D,NULL,PennController,3,_Trial_,Start,1648159655964,CRYSTAL,NULL
1648161139,ea4822a528ee3bb453e635d65811542e,PennController,3,0,instructions_D,NULL,PennController,3,_Header_,Start,1648159655964,CRYSTAL,NULL
1648161139,ea4822a528ee3bb453e635d65811542e,PennController,3,0,instructions_D,NULL,PennController,3,_Header_,End,1648159655964,CRYSTAL,NULL
1648161139,ea4822a528ee3bb453e635d65811542e,PennController,3,0,instructions_D,NULL,PennController,3,_Trial_,End,1648159656721,CRYSTAL,NULL
1648161139,ea4822a528ee3bb453e635d65811542e,PennController,4,0,instructions_Extra,NULL,PennController,4,_Trial_,Start,1648159656722,CRYSTAL,NULL
1648161139,ea4822a528ee3bb453e635d65811542e,PennController,4,0,instructions_Extra,NULL,PennController,4,_Header_,Start,1648159656722,CRYSTAL,NULL
1648161139,ea4822a528ee3bb453e635d65811542e,PennController,4,0,instructions_Extra,NULL,PennController,4,_Header_,End,1648159656722,CRYSTAL,NULL
1648161139,ea4822a528ee3bb453e635d65811542e,PennController,4,0,instructions_Extra,NULL,PennController,4,_Trial_,End,1648159657369,CRYSTAL,NULL
1648161139,ea4822a528ee3bb453e635d65811542e,PennController,5,0,keyboard_warning,NULL,PennController,5,_Trial_,Start,1648159657370,CRYSTAL,NULL
1648161139,ea4822a528ee3bb453e635d65811542e,PennController,5,0,keyboard_warning,NULL,PennController,5,_Header_,Start,1648159657370,CRYSTAL,NULL
1648161139,ea4822a528ee3bb453e635d65811542e,PennController,5,0,keyboard_warning,NULL,PennController,5,_Header_,End,1648159657370,CRYSTAL,NULL
1648161139,ea4822a528ee3bb453e635d65811542e,PennController,5,0,keyboard_warning,NULL,PennController,5,_Trial_,End,1648159658873,CRYSTAL,NULL
1648161139,ea4822a528ee3bb453e635d65811542e,PennController,26,0,p_trial_4_spatial_cue_UP,NULL,PennController,32,_Trial_,Start,1648159658876,CRYSTAL,NULL
1648161139,ea4822a528ee3bb453e635d65811542e,PennController,26,0,p_trial_4_spatial_cue_UP,NULL,PennController,32,_Header_,Start,1648159658876,CRYSTAL,NULL
1648161139,ea4822a528ee3bb453e635d65811542e,PennController,26,0,p_trial_4_spatial_cue_UP,NULL,PennController,32,_Header_,End,1648159658876,CRYSTAL,NULL
1648161139,ea4822a528ee3bb453e635d65811542e,PennController,26,0,p_trial_4_spatial_cue_UP,NULL,PennController,32,_Trial_,End,1648159664880,CRYSTAL,NULL
1648161139,ea4822a528ee3bb453e635d65811542e,PennController,20,0,p_trial_3_double_cue_UP,NULL,PennController,26,_Trial_,Start,1648159664882,CRYSTAL,NULL
1648161139,ea4822a528ee3bb453e635d65811542e,PennController,20,0,p_trial_3_double_cue_UP,NULL,PennController,26,_Header_,Start,1648159664882,CRYSTAL,NULL
1648161139,ea4822a528ee3bb453e635d65811542e,PennController,20,0,p_trial_3_double_cue_UP,NULL,PennController,26,_Header_,End,1648159664882,CRYSTAL,NULL
1648161139,ea4822a528ee3bb453e635d65811542e,PennController,20,0,p_trial_3_double_cue_UP,NULL,PennController,26,_Trial_,End,1648159670886,CRYSTAL,NULL
1648161139,ea4822a528ee3bb453e635d65811542e,PennController,23,0,p_trial_3_double_cue_DOWN,NULL,PennController,29,_Trial_,Start,1648159670888,CRYSTAL,NULL
1648161139,ea4822a528ee3bb453e635d65811542e,PennController,23,0,p_trial_3_double_cue_DOWN,NULL,PennController,29,_Header_,Start,1648159670888,CRYSTAL,NULL
1648161139,ea4822a528ee3bb453e635d65811542e,PennController,23,0,p_trial_3_double_cue_DOWN,NULL,PennController,29,_Header_,End,1648159670888,CRYSTAL,NULL
1648161139,ea4822a528ee3bb453e635d65811542e,PennController,23,0,p_trial_3_double_cue_DOWN,NULL,PennController,29,_Trial_,End,1648159676890,CRYSTAL,NULL
1648161139,ea4822a528ee3bb453e635d65811542e,PennController,10,0,p_trial_1_no_cue_DOWN,NULL,PennController,16,_Trial_,Start,1648159676892,CRYSTAL,NULL
1648161139,ea4822a528ee3bb453e635d65811542e,PennController,10,0,p_trial_1_no_cue_DOWN,NULL,PennController,16,_Header_,Start,1648159676892,CRYSTAL,NULL
1648161139,ea4822a528ee3bb453e635d65811542e,PennController,10,0,p_trial_1_no_cue_DOWN,NULL,PennController,16,_Header_,End,1648159676892,CRYSTAL,NULL
1648161139,ea4822a528ee3bb453e635d65811542e,PennController,10,0,p_trial_1_no_cue_DOWN,NULL,PennController,16,_Trial_,End,1648159682895,CRYSTAL,NULL
1648161139,ea4822a528ee3bb453e635d65811542e,PennController,27,0,p_trial_4_spatial_cue_DOWN,NULL,PennController,33,_Trial_,Start,1648159682898,CRYSTAL,NULL
1648161139,ea4822a528ee3bb453e635d65811542e,PennController,27,0,p_trial_4_spatial_cue_DOWN,NULL,PennController,33,_Header_,Start,1648159682898,CRYSTAL,NULL
1648161139,ea4822a528ee3bb453e635d65811542e,PennController,27,0,p_trial_4_spatial_cue_DOWN,NULL,PennController,33,_Header_,End,1648159682898,CRYSTAL,NULL
1648161139,ea4822a528ee3bb453e635d65811542e,PennController,27,0,p_trial_4_spatial_cue_DOWN,NULL,PennController,33,_Trial_,End,1648159688904,CRYSTAL,NULL
1648161139,ea4822a528ee3bb453e635d65811542e,PennController,13,0,p_trial_2_center_cue_UP,NULL,PennController,19,_Trial_,Start,1648159688906,CRYSTAL,NULL
1648161139,ea4822a528ee3bb453e635d65811542e,PennController,13,0,p_trial_2_center_cue_UP,NULL,PennController,19,_Header_,Start,1648159688906,CRYSTAL,NULL
1648161139,ea4822a528ee3bb453e635d65811542e,PennController,13,0,p_trial_2_center_cue_UP,NULL,PennController,19,_Header_,End,1648159688907,CRYSTAL,NULL
1648161139,ea4822a528ee3bb453e635d65811542e,PennController,13,0,p_trial_2_center_cue_UP,NULL,PennController,19,_Trial_,End,1648159694910,CRYSTAL,NULL
1648161139,ea4822a528ee3bb453e635d65811542e,PennController,15,0,p_trial_2_center_cue_DOWN,NULL,PennController,21,_Trial_,Start,1648159694913,CRYSTAL,NULL
1648161139,ea4822a528ee3bb453e635d65811542e,PennController,15,0,p_trial_2_center_cue_DOWN,NULL,PennController,21,_Header_,Start,1648159694913,CRYSTAL,NULL
1648161139,ea4822a528ee3bb453e635d65811542e,PennController,15,0,p_trial_2_center_cue_DOWN,NULL,PennController,21,_Header_,End,1648159694913,CRYSTAL,NULL
1648161139,ea4822a528ee3bb453e635d65811542e,PennController,15,0,p_trial_2_center_cue_DOWN,NULL,PennController,21,_Trial_,End,1648159700917,CRYSTAL,NULL
1648161139,ea4822a528ee3bb453e635d65811542e,PennController,6,0,p_trial_1_no_cue_UP,NULL,PennController,12,_Trial_,Start,1648159700919,CRYSTAL,NULL
1648161139,ea4822a528ee3bb453e635d65811542e,PennController,6,0,p_trial_1_no_cue_UP,NULL,PennController,12,_Header_,Start,1648159700919,CRYSTAL,NULL
1648161139,ea4822a528ee3bb453e635d65811542e,PennController,6,0,p_trial_1_no_cue_UP,NULL,PennController,12,_Header_,End,1648159700919,CRYSTAL,NULL
1648161139,ea4822a528ee3bb453e635d65811542e,PennController,6,0,p_trial_1_no_cue_UP,NULL,PennController,12,_Trial_,End,1648159706923,CRYSTAL,NULL
1648161139,ea4822a528ee3bb453e635d65811542e,PennController,25,0,p_trial_4_spatial_cue_UP,NULL,PennController,31,_Trial_,Start,1648159706925,CRYSTAL,NULL
1648161139,ea4822a528ee3bb453e635d65811542e,PennController,25,0,p_trial_4_spatial_cue_UP,NULL,PennController,31,_Header_,Start,1648159706925,CRYSTAL,NULL
1648161139,ea4822a528ee3bb453e635d65811542e,PennController,25,0,p_trial_4_spatial_cue_UP,NULL,PennController,31,_Header_,End,1648159706925,CRYSTAL,NULL
1648161139,ea4822a528ee3bb453e635d65811542e,PennController,25,0,p_trial_4_spatial_cue_UP,NULL,PennController,31,_Trial_,End,1648159712930,CRYSTAL,NULL
1648161139,ea4822a528ee3bb453e635d65811542e,PennController,19,0,p_trial_3_double_cue_UP,NULL,PennController,25,_Trial_,Start,1648159712932,CRYSTAL,NULL
1648161139,ea4822a528ee3bb453e635d65811542e,PennController,19,0,p_trial_3_double_cue_UP,NULL,PennController,25,_Header_,Start,1648159712932,CRYSTAL,NULL
1648161139,ea4822a528ee3bb453e635d65811542e,PennController,19,0,p_trial_3_double_cue_UP,NULL,PennController,25,_Header_,End,1648159712932,CRYSTAL,NULL
1648161139,ea4822a528ee3bb453e635d65811542e,PennController,19,0,p_trial_3_double_cue_UP,NULL,PennController,25,_Trial_,End,1648159718937,CRYSTAL,NULL
1648161139,ea4822a528ee3bb453e635d65811542e,PennController,21,0,p_trial_3_double_cue_DOWN,NULL,PennController,27,_Trial_,Start,1648159718940,CRYSTAL,NULL
1648161139,ea4822a528ee3bb453e635d65811542e,PennController,21,0,p_trial_3_double_cue_DOWN,NULL,PennController,27,_Header_,Start,1648159718940,CRYSTAL,NULL
1648161139,ea4822a528ee3bb453e635d65811542e,PennController,21,0,p_trial_3_double_cue_DOWN,NULL,PennController,27,_Header_,End,1648159718940,CRYSTAL,NULL
1648161139,ea4822a528ee3bb453e635d65811542e,PennController,21,0,p_trial_3_double_cue_DOWN,NULL,PennController,27,_Trial_,End,1648159724945,CRYSTAL,NULL
1648161139,ea4822a528ee3bb453e635d65811542e,PennController,11,0,p_trial_1_no_cue_DOWN,NULL,PennController,17,_Trial_,Start,1648159724948,CRYSTAL,NULL
1648161139,ea4822a528ee3bb453e635d65811542e,PennController,11,0,p_trial_1_no_cue_DOWN,NULL,PennController,17,_Header_,Start,1648159724948,CRYSTAL,NULL
1648161139,ea4822a528ee3bb453e635d65811542e,PennController,11,0,p_trial_1_no_cue_DOWN,NULL,PennController,17,_Header_,End,1648159724948,CRYSTAL,NULL
1648161139,ea4822a528ee3bb453e635d65811542e,PennController,11,0,p_trial_1_no_cue_DOWN,NULL,PennController,17,_Trial_,End,1648159730953,CRYSTAL,NULL
1648161139,ea4822a528ee3bb453e635d65811542e,PennController,28,0,p_trial_4_spatial_cue_DOWN,NULL,PennController,34,_Trial_,Start,1648159730955,CRYSTAL,NULL
1648161139,ea4822a528ee3bb453e635d65811542e,PennController,28,0,p_trial_4_spatial_cue_DOWN,NULL,PennController,34,_Header_,Start,1648159730955,CRYSTAL,NULL
1648161139,ea4822a528ee3bb453e635d65811542e,PennController,28,0,p_trial_4_spatial_cue_DOWN,NULL,PennController,34,_Header_,End,1648159730955,CRYSTAL,NULL
1648161139,ea4822a528ee3bb453e635d65811542e,PennController,28,0,p_trial_4_spatial_cue_DOWN,NULL,PennController,34,_Trial_,End,1648159736957,CRYSTAL,NULL
1648161139,ea4822a528ee3bb453e635d65811542e,PennController,14,0,p_trial_2_center_cue_UP,NULL,PennController,20,_Trial_,Start,1648159736960,CRYSTAL,NULL
1648161139,ea4822a528ee3bb453e635d65811542e,PennController,14,0,p_trial_2_center_cue_UP,NULL,PennController,20,_Header_,Start,1648159736960,CRYSTAL,NULL
1648161139,ea4822a528ee3bb453e635d65811542e,PennController,14,0,p_trial_2_center_cue_UP,NULL,PennController,20,_Header_,End,1648159736960,CRYSTAL,NULL
1648161139,ea4822a528ee3bb453e635d65811542e,PennController,14,0,p_trial_2_center_cue_UP,NULL,PennController,20,_Trial_,End,1648159742964,CRYSTAL,NULL
1648161139,ea4822a528ee3bb453e635d65811542e,PennController,16,0,p_trial_2_center_cue_DOWN,NULL,PennController,22,_Trial_,Start,1648159742965,CRYSTAL,NULL
1648161139,ea4822a528ee3bb453e635d65811542e,PennController,16,0,p_trial_2_center_cue_DOWN,NULL,PennController,22,_Header_,Start,1648159742965,CRYSTAL,NULL
1648161139,ea4822a528ee3bb453e635d65811542e,PennController,16,0,p_trial_2_center_cue_DOWN,NULL,PennController,22,_Header_,End,1648159742965,CRYSTAL,NULL
1648161139,ea4822a528ee3bb453e635d65811542e,PennController,16,0,p_trial_2_center_cue_DOWN,NULL,PennController,22,_Trial_,End,1648159748969,CRYSTAL,NULL
1648161139,ea4822a528ee3bb453e635d65811542e,PennController,8,0,p_trial_1_no_cue_UP,NULL,PennController,14,_Trial_,Start,1648159748969,CRYSTAL,NULL
1648161139,ea4822a528ee3bb453e635d65811542e,PennController,8,0,p_trial_1_no_cue_UP,NULL,PennController,14,_Header_,Start,1648159748969,CRYSTAL,NULL
1648161139,ea4822a528ee3bb453e635d65811542e,PennController,8,0,p_trial_1_no_cue_UP,NULL,PennController,14,_Header_,End,1648159748969,CRYSTAL,NULL
1648161139,ea4822a528ee3bb453e635d65811542e,PennController,8,0,p_trial_1_no_cue_UP,NULL,PennController,14,_Trial_,End,1648159754974,CRYSTAL,NULL
1648161139,ea4822a528ee3bb453e635d65811542e,PennController,24,0,p_trial_4_spatial_cue_UP,NULL,PennController,30,_Trial_,Start,1648159754976,CRYSTAL,NULL
1648161139,ea4822a528ee3bb453e635d65811542e,PennController,24,0,p_trial_4_spatial_cue_UP,NULL,PennController,30,_Header_,Start,1648159754976,CRYSTAL,NULL
1648161139,ea4822a528ee3bb453e635d65811542e,PennController,24,0,p_trial_4_spatial_cue_UP,NULL,PennController,30,_Header_,End,1648159754976,CRYSTAL,NULL
1648161139,ea4822a528ee3bb453e635d65811542e,PennController,24,0,p_trial_4_spatial_cue_UP,NULL,PennController,30,_Trial_,End,1648159760981,CRYSTAL,NULL
1648161139,ea4822a528ee3bb453e635d65811542e,PennController,18,0,p_trial_3_double_cue_UP,NULL,PennController,24,_Trial_,Start,1648159760983,CRYSTAL,NULL
1648161139,ea4822a528ee3bb453e635d65811542e,PennController,18,0,p_trial_3_double_cue_UP,NULL,PennController,24,_Header_,Start,1648159760983,CRYSTAL,NULL
1648161139,ea4822a528ee3bb453e635d65811542e,PennController,18,0,p_trial_3_double_cue_UP,NULL,PennController,24,_Header_,End,1648159760983,CRYSTAL,NULL
1648161139,ea4822a528ee3bb453e635d65811542e,PennController,18,0,p_trial_3_double_cue_UP,NULL,PennController,24,_Trial_,End,1648159766986,CRYSTAL,NULL
1648161139,ea4822a528ee3bb453e635d65811542e,PennController,22,0,p_trial_3_double_cue_DOWN,NULL,PennController,28,_Trial_,Start,1648159766988,CRYSTAL,NULL
1648161139,ea4822a528ee3bb453e635d65811542e,PennController,22,0,p_trial_3_double_cue_DOWN,NULL,PennController,28,_Header_,Start,1648159766988,CRYSTAL,NULL
1648161139,ea4822a528ee3bb453e635d65811542e,PennController,22,0,p_trial_3_double_cue_DOWN,NULL,PennController,28,_Header_,End,1648159766988,CRYSTAL,NULL
1648161139,ea4822a528ee3bb453e635d65811542e,PennController,22,0,p_trial_3_double_cue_DOWN,NULL,PennController,28,_Trial_,End,1648159772989,CRYSTAL,NULL
1648161139,ea4822a528ee3bb453e635d65811542e,PennController,9,0,p_trial_1_no_cue_DOWN,NULL,PennController,15,_Trial_,Start,1648159772991,CRYSTAL,NULL
1648161139,ea4822a528ee3bb453e635d65811542e,PennController,9,0,p_trial_1_no_cue_DOWN,NULL,PennController,15,_Header_,Start,1648159772991,CRYSTAL,NULL
1648161139,ea4822a528ee3bb453e635d65811542e,PennController,9,0,p_trial_1_no_cue_DOWN,NULL,PennController,15,_Header_,End,1648159772991,CRYSTAL,NULL
1648161139,ea4822a528ee3bb453e635d65811542e,PennController,9,0,p_trial_1_no_cue_DOWN,NULL,PennController,15,_Trial_,End,1648159778996,CRYSTAL,NULL
1648161139,ea4822a528ee3bb453e635d65811542e,PennController,29,0,p_trial_4_spatial_cue_DOWN,NULL,PennController,35,_Trial_,Start,1648159778997,CRYSTAL,NULL
1648161139,ea4822a528ee3bb453e635d65811542e,PennController,29,0,p_trial_4_spatial_cue_DOWN,NULL,PennController,35,_Header_,Start,1648159778997,CRYSTAL,NULL
1648161139,ea4822a528ee3bb453e635d65811542e,PennController,29,0,p_trial_4_spatial_cue_DOWN,NULL,PennController,35,_Header_,End,1648159778997,CRYSTAL,NULL
1648161139,ea4822a528ee3bb453e635d65811542e,PennController,29,0,p_trial_4_spatial_cue_DOWN,NULL,PennController,35,_Trial_,End,1648159784999,CRYSTAL,NULL
1648161139,ea4822a528ee3bb453e635d65811542e,PennController,12,0,p_trial_2_center_cue_UP,NULL,PennController,18,_Trial_,Start,1648159785001,CRYSTAL,NULL
1648161139,ea4822a528ee3bb453e635d65811542e,PennController,12,0,p_trial_2_center_cue_UP,NULL,PennController,18,_Header_,Start,1648159785001,CRYSTAL,NULL
1648161139,ea4822a528ee3bb453e635d65811542e,PennController,12,0,p_trial_2_center_cue_UP,NULL,PennController,18,_Header_,End,1648159785001,CRYSTAL,NULL
1648161139,ea4822a528ee3bb453e635d65811542e,PennController,12,0,p_trial_2_center_cue_UP,NULL,PennController,18,_Trial_,End,1648159791004,CRYSTAL,NULL
1648161139,ea4822a528ee3bb453e635d65811542e,PennController,17,0,p_trial_2_center_cue_DOWN,NULL,PennController,23,_Trial_,Start,1648159791006,CRYSTAL,NULL
1648161139,ea4822a528ee3bb453e635d65811542e,PennController,17,0,p_trial_2_center_cue_DOWN,NULL,PennController,23,_Header_,Start,1648159791006,CRYSTAL,NULL
1648161139,ea4822a528ee3bb453e635d65811542e,PennController,17,0,p_trial_2_center_cue_DOWN,NULL,PennController,23,_Header_,End,1648159791007,CRYSTAL,NULL
1648161139,ea4822a528ee3bb453e635d65811542e,PennController,17,0,p_trial_2_center_cue_DOWN,NULL,PennController,23,_Trial_,End,1648159797010,CRYSTAL,NULL
1648161139,ea4822a528ee3bb453e635d65811542e,PennController,7,0,p_trial_1_no_cue_UP,NULL,PennController,13,_Trial_,Start,1648159797013,CRYSTAL,NULL
1648161139,ea4822a528ee3bb453e635d65811542e,PennController,7,0,p_trial_1_no_cue_UP,NULL,PennController,13,_Header_,Start,1648159797013,CRYSTAL,NULL
1648161139,ea4822a528ee3bb453e635d65811542e,PennController,7,0,p_trial_1_no_cue_UP,NULL,PennController,13,_Header_,End,1648159797013,CRYSTAL,NULL
1648161139,ea4822a528ee3bb453e635d65811542e,PennController,7,0,p_trial_1_no_cue_UP,NULL,PennController,13,_Trial_,End,1648159803017,CRYSTAL,NULL
1648161139,ea4822a528ee3bb453e635d65811542e,PennController,30,0,feedback-trial,NULL,PennController,6,_Trial_,Start,1648159803019,CRYSTAL,NULL
1648161139,ea4822a528ee3bb453e635d65811542e,PennController,30,0,feedback-trial,NULL,PennController,6,_Header_,Start,1648159803019,CRYSTAL,NULL
1648161139,ea4822a528ee3bb453e635d65811542e,PennController,30,0,feedback-trial,NULL,PennController,6,_Header_,End,1648159803019,CRYSTAL,NULL
1648161139,ea4822a528ee3bb453e635d65811542e,PennController,30,0,feedback-trial,NULL,PennController,6,_Trial_,End,1648159825579,CRYSTAL,NULL
1648161139,ea4822a528ee3bb453e635d65811542e,PennController,31,0,instructions_E,NULL,PennController,7,_Trial_,Start,1648159825580,CRYSTAL,NULL
1648161139,ea4822a528ee3bb453e635d65811542e,PennController,31,0,instructions_E,NULL,PennController,7,_Header_,Start,1648159825580,CRYSTAL,NULL
1648161139,ea4822a528ee3bb453e635d65811542e,PennController,31,0,instructions_E,NULL,PennController,7,_Header_,End,1648159825580,CRYSTAL,NULL
1648161139,ea4822a528ee3bb453e635d65811542e,PennController,31,0,instructions_E,NULL,PennController,7,_Trial_,End,1648159827465,CRYSTAL,NULL
1648161139,ea4822a528ee3bb453e635d65811542e,PennController,32,0,keyboard_warning_short,NULL,PennController,8,_Trial_,Start,1648159827466,CRYSTAL,NULL
1648161139,ea4822a528ee3bb453e635d65811542e,PennController,32,0,keyboard_warning_short,NULL,PennController,8,_Header_,Start,1648159827466,CRYSTAL,NULL
1648161139,ea4822a528ee3bb453e635d65811542e,PennController,32,0,keyboard_warning_short,NULL,PennController,8,_Header_,End,1648159827466,CRYSTAL,NULL
1648161139,ea4822a528ee3bb453e635d65811542e,PennController,32,0,keyboard_warning_short,NULL,PennController,8,_Trial_,End,1648159828969,CRYSTAL,NULL
# 14. imagens.
# 15. item.
# 16. ReactionTime.
# 17. Comments.
1648161139,ea4822a528ee3bb453e635d65811542e,PennController,33,0,trial_1_no_cue_UP,NULL,PennController,36,_Trial_,Start,1648159828970,CRYSTAL,cong-right.png,1,1698,NULL
1648161139,ea4822a528ee3bb453e635d65811542e,PennController,33,0,trial_1_no_cue_UP,NULL,PennController,36,_Header_,Start,1648159828970,CRYSTAL,cong-right.png,1,1698,NULL
1648161139,ea4822a528ee3bb453e635d65811542e,PennController,33,0,trial_1_no_cue_UP,NULL,PennController,36,_Header_,End,1648159828970,CRYSTAL,cong-right.png,1,1698,NULL
1648161139,ea4822a528ee3bb453e635d65811542e,PennController,33,0,trial_1_no_cue_UP,NULL,Canvas,center,Print,NA,1648159830657,CRYSTAL,cong-right.png,1,1698,NULL
1648161139,ea4822a528ee3bb453e635d65811542e,PennController,33,0,trial_1_no_cue_UP,NULL,Key,keypress1,Key,NA,Never,CRYSTAL,cong-right.png,1,1698,NULL
1648161139,ea4822a528ee3bb453e635d65811542e,PennController,33,0,trial_1_no_cue_UP,NULL,PennController,36,_Trial_,End,1648159834860,CRYSTAL,cong-right.png,1,1698,NULL
1648161139,ea4822a528ee3bb453e635d65811542e,PennController,62,0,trial_3_double_cue_UP,NULL,PennController,65,_Trial_,Start,1648159834861,CRYSTAL,neutral-left.png,6,1700,NULL
1648161139,ea4822a528ee3bb453e635d65811542e,PennController,62,0,trial_3_double_cue_UP,NULL,PennController,65,_Header_,Start,1648159834861,CRYSTAL,neutral-left.png,6,1700,NULL
1648161139,ea4822a528ee3bb453e635d65811542e,PennController,62,0,trial_3_double_cue_UP,NULL,PennController,65,_Header_,End,1648159834861,CRYSTAL,neutral-left.png,6,1700,NULL
1648161139,ea4822a528ee3bb453e635d65811542e,PennController,62,0,trial_3_double_cue_UP,NULL,Canvas,center,Print,NA,1648159836773,CRYSTAL,neutral-left.png,6,1700,NULL
1648161139,ea4822a528ee3bb453e635d65811542e,PennController,62,0,trial_3_double_cue_UP,NULL,Key,keypress1,Key,NA,Never,CRYSTAL,neutral-left.png,6,1700,NULL
1648161139,ea4822a528ee3bb453e635d65811542e,PennController,62,0,trial_3_double_cue_UP,NULL,PennController,65,_Trial_,End,1648159838864,CRYSTAL,neutral-left.png,6,1700,NULL
1648161139,ea4822a528ee3bb453e635d65811542e,PennController,56,0,trial_2_center_cue_DOWN,NULL,PennController,59,_Trial_,Start,1648159838865,CRYSTAL,neutral-left.png,6,1700,NULL
1648161139,ea4822a528ee3bb453e635d65811542e,PennController,56,0,trial_2_center_cue_DOWN,NULL,PennController,59,_Header_,Start,1648159838865,CRYSTAL,neutral-left.png,6,1700,NULL
1648161139,ea4822a528ee3bb453e635d65811542e,PennController,56,0,trial_2_center_cue_DOWN,NULL,PennController,59,_Header_,End,1648159838866,CRYSTAL,neutral-left.png,6,1700,NULL
1648161139,ea4822a528ee3bb453e635d65811542e,PennController,56,0,trial_2_center_cue_DOWN,NULL,Canvas,center,Print,NA,1648159840418,CRYSTAL,neutral-left.png,6,1700,NULL
1648161139,ea4822a528ee3bb453e635d65811542e,PennController,56,0,trial_2_center_cue_DOWN,NULL,Key,keypress1,Key,NA,Never,CRYSTAL,neutral-left.png,6,1700,NULL
1648161139,ea4822a528ee3bb453e635d65811542e,PennController,56,0,trial_2_center_cue_DOWN,NULL,PennController,59,_Trial_,End,1648159842868,CRYSTAL,neutral-left.png,6,1700,NULL
1648161139,ea4822a528ee3bb453e635d65811542e,PennController,51,0,trial_2_center_cue_DOWN,NULL,PennController,54,_Trial_,Start,1648159842870,CRYSTAL,cong-right.png,1,1698,NULL
1648161139,ea4822a528ee3bb453e635d65811542e,PennController,51,0,trial_2_center_cue_DOWN,NULL,PennController,54,_Header_,Start,1648159842870,CRYSTAL,cong-right.png,1,1698,NULL
1648161139,ea4822a528ee3bb453e635d65811542e,PennController,51,0,trial_2_center_cue_DOWN,NULL,PennController,54,_Header_,End,1648159842870,CRYSTAL,cong-right.png,1,1698,NULL
1648161139,ea4822a528ee3bb453e635d65811542e,PennController,51,0,trial_2_center_cue_DOWN,NULL,Canvas,center,Print,NA,1648159844401,CRYSTAL,cong-right.png,1,1698,NULL
1648161139,ea4822a528ee3bb453e635d65811542e,PennController,51,0,trial_2_center_cue_DOWN,NULL,Key,keypress1,Key,NA,Never,CRYSTAL,cong-right.png,1,1698,NULL
1648161139,ea4822a528ee3bb453e635d65811542e,PennController,51,0,trial_2_center_cue_DOWN,NULL,PennController,54,_Trial_,End,1648159846873,CRYSTAL,cong-right.png,1,1698,NULL
1648161139,ea4822a528ee3bb453e635d65811542e,PennController,64,0,trial_3_double_cue_DOWN,NULL,PennController,67,_Trial_,Start,1648159846875,CRYSTAL,incong-right.png,2,1697,NULL
1648161139,ea4822a528ee3bb453e635d65811542e,PennController,64,0,trial_3_double_cue_DOWN,NULL,PennController,67,_Header_,Start,1648159846875,CRYSTAL,incong-right.png,2,1697,NULL
1648161139,ea4822a528ee3bb453e635d65811542e,PennController,64,0,trial_3_double_cue_DOWN,NULL,PennController,67,_Header_,End,1648159846875,CRYSTAL,incong-right.png,2,1697,NULL
1648161139,ea4822a528ee3bb453e635d65811542e,PennController,64,0,trial_3_double_cue_DOWN,NULL,Canvas,center,Print,NA,1648159848207,CRYSTAL,incong-right.png,2,1697,NULL
1648161139,ea4822a528ee3bb453e635d65811542e,PennController,64,0,trial_3_double_cue_DOWN,NULL,Key,keypress1,Key,NA,Never,CRYSTAL,incong-right.png,2,1697,NULL
1648161139,ea4822a528ee3bb453e635d65811542e,PennController,64,0,trial_3_double_cue_DOWN,NULL,PennController,67,_Trial_,End,1648159850876,CRYSTAL,incong-right.png,2,1697,NULL
1648161139,ea4822a528ee3bb453e635d65811542e,PennController,60,0,trial_3_double_cue_UP,NULL,PennController,63,_Trial_,Start,1648159850878,CRYSTAL,cong-left.png,4,1700,NULL
1648161139,ea4822a528ee3bb453e635d65811542e,PennController,60,0,trial_3_double_cue_UP,NULL,PennController,63,_Header_,Start,1648159850878,CRYSTAL,cong-left.png,4,1700,NULL
1648161139,ea4822a528ee3bb453e635d65811542e,PennController,60,0,trial_3_double_cue_UP,NULL,PennController,63,_Header_,End,1648159850878,CRYSTAL,cong-left.png,4,1700,NULL
1648161139,ea4822a528ee3bb453e635d65811542e,PennController,60,0,trial_3_double_cue_UP,NULL,Canvas,center,Print,NA,1648159852221,CRYSTAL,cong-left.png,4,1700,NULL
1648161139,ea4822a528ee3bb453e635d65811542e,PennController,60,0,trial_3_double_cue_UP,NULL,Key,keypress1,Key,NA,Never,CRYSTAL,cong-left.png,4,1700,NULL
1648161139,ea4822a528ee3bb453e635d65811542e,PennController,60,0,trial_3_double_cue_UP,NULL,PennController,63,_Trial_,End,1648159854883,CRYSTAL,cong-left.png,4,1700,NULL
1648161139,ea4822a528ee3bb453e635d65811542e,PennController,67,0,trial_3_double_cue_DOWN,NULL,PennController,70,_Trial_,Start,1648159854885,CRYSTAL,incong-left.png,5,1701,NULL
1648161139,ea4822a528ee3bb453e635d65811542e,PennController,67,0,trial_3_double_cue_DOWN,NULL,PennController,70,_Header_,Start,1648159854885,CRYSTAL,incong-left.png,5,1701,NULL
1648161139,ea4822a528ee3bb453e635d65811542e,PennController,67,0,trial_3_double_cue_DOWN,NULL,PennController,70,_Header_,End,1648159854885,CRYSTAL,incong-left.png,5,1701,NULL
1648161139,ea4822a528ee3bb453e635d65811542e,PennController,67,0,trial_3_double_cue_DOWN,NULL,Canvas,center,Print,NA,1648159855867,CRYSTAL,incong-left.png,5,1701,NULL
1648161139,ea4822a528ee3bb453e635d65811542e,PennController,67,0,trial_3_double_cue_DOWN,NULL,Key,keypress1,Key,NA,Never,CRYSTAL,incong-left.png,5,1701,NULL
1648161139,ea4822a528ee3bb453e635d65811542e,PennController,67,0,trial_3_double_cue_DOWN,NULL,PennController,70,_Trial_,End,1648159858890,CRYSTAL,incong-left.png,5,1701,NULL
1648161139,ea4822a528ee3bb453e635d65811542e,PennController,70,0,trial_4_spatial_cue_UP,NULL,PennController,73,_Trial_,Start,1648159858891,CRYSTAL,incong-right.png,2,1697,NULL
1648161139,ea4822a528ee3bb453e635d65811542e,PennController,70,0,trial_4_spatial_cue_UP,NULL,PennController,73,_Header_,Start,1648159858891,CRYSTAL,incong-right.png,2,1697,NULL
1648161139,ea4822a528ee3bb453e635d65811542e,PennController,70,0,trial_4_spatial_cue_UP,NULL,PennController,73,_Header_,End,1648159858891,CRYSTAL,incong-right.png,2,1697,NULL
1648161139,ea4822a528ee3bb453e635d65811542e,PennController,70,0,trial_4_spatial_cue_UP,NULL,Canvas,center,Print,NA,1648159859818,CRYSTAL,incong-right.png,2,1697,NULL
1648161139,ea4822a528ee3bb453e635d65811542e,PennController,70,0,trial_4_spatial_cue_UP,NULL,Key,keypress1,Key,NA,Never,CRYSTAL,incong-right.png,2,1697,NULL
1648161139,ea4822a528ee3bb453e635d65811542e,PennController,70,0,trial_4_spatial_cue_UP,NULL,PennController,73,_Trial_,End,1648159862895,CRYSTAL,incong-right.png,2,1697,NULL
1648161139,ea4822a528ee3bb453e635d65811542e,PennController,40,0,trial_1_no_cue_DOWN,NULL,PennController,43,_Trial_,Start,1648159862896,CRYSTAL,incong-right.png,2,1700,NULL
1648161139,ea4822a528ee3bb453e635d65811542e,PennController,40,0,trial_1_no_cue_DOWN,NULL,PennController,43,_Header_,Start,1648159862896,CRYSTAL,incong-right.png,2,1700,NULL
1648161139,ea4822a528ee3bb453e635d65811542e,PennController,40,0,trial_1_no_cue_DOWN,NULL,PennController,43,_Header_,End,1648159862896,CRYSTAL,incong-right.png,2,1700,NULL
1648161139,ea4822a528ee3bb453e635d65811542e,PennController,40,0,trial_1_no_cue_DOWN,NULL,Canvas,center,Print,NA,1648159864084,CRYSTAL,incong-right.png,2,1700,NULL
1648161139,ea4822a528ee3bb453e635d65811542e,PennController,40,0,trial_1_no_cue_DOWN,NULL,Key,keypress1,Key,NA,Never,CRYSTAL,incong-right.png,2,1700,NULL
1648161139,ea4822a528ee3bb453e635d65811542e,PennController,40,0,trial_1_no_cue_DOWN,NULL,PennController,43,_Trial_,End,1648159868292,CRYSTAL,incong-right.png,2,1700,NULL
1648161139,ea4822a528ee3bb453e635d65811542e,PennController,48,0,trial_2_center_cue_UP,NULL,PennController,51,_Trial_,Start,1648159868295,CRYSTAL,cong-left.png,4,1700,NULL
1648161139,ea4822a528ee3bb453e635d65811542e,PennController,48,0,trial_2_center_cue_UP,NULL,PennController,51,_Header_,Start,1648159868295,CRYSTAL,cong-left.png,4,1700,NULL
1648161139,ea4822a528ee3bb453e635d65811542e,PennController,48,0,trial_2_center_cue_UP,NULL,PennController,51,_Header_,End,1648159868295,CRYSTAL,cong-left.png,4,1700,NULL
1648161139,ea4822a528ee3bb453e635d65811542e,PennController,48,0,trial_2_center_cue_UP,NULL,Canvas,center,Print,NA,1648159869752,CRYSTAL,cong-left.png,4,1700,NULL
1648161139,ea4822a528ee3bb453e635d65811542e,PennController,48,0,trial_2_center_cue_UP,NULL,Key,keypress1,Key,NA,Never,CRYSTAL,cong-left.png,4,1700,NULL
1648161139,ea4822a528ee3bb453e635d65811542e,PennController,48,0,trial_2_center_cue_UP,NULL,PennController,51,_Trial_,End,1648159872300,CRYSTAL,cong-left.png,4,1700,NULL
1648161139,ea4822a528ee3bb453e635d65811542e,PennController,49,0,trial_2_center_cue_UP,NULL,PennController,52,_Trial_,Start,1648159872301,CRYSTAL,incong-left.png,5,1699,NULL
1648161139,ea4822a528ee3bb453e635d65811542e,PennController,49,0,trial_2_center_cue_UP,NULL,PennController,52,_Header_,Start,1648159872301,CRYSTAL,incong-left.png,5,1699,NULL
1648161139,ea4822a528ee3bb453e635d65811542e,PennController,49,0,trial_2_center_cue_UP,NULL,PennController,52,_Header_,End,1648159872302,CRYSTAL,incong-left.png,5,1699,NULL
1648161139,ea4822a528ee3bb453e635d65811542e,PennController,49,0,trial_2_center_cue_UP,NULL,Canvas,center,Print,NA,1648159874044,CRYSTAL,incong-left.png,5,1699,NULL
1648161139,ea4822a528ee3bb453e635d65811542e,PennController,49,0,trial_2_center_cue_UP,NULL,Key,keypress1,Key,NA,Never,CRYSTAL,incong-left.png,5,1699,NULL
1648161139,ea4822a528ee3bb453e635d65811542e,PennController,49,0,trial_2_center_cue_UP,NULL,PennController,52,_Trial_,End,1648159876305,CRYSTAL,incong-left.png,5,1699,NULL
1648161139,ea4822a528ee3bb453e635d65811542e,PennController,34,0,trial_1_no_cue_UP,NULL,PennController,37,_Trial_,Start,1648159876307,CRYSTAL,incong-right.png,2,1699,NULL
1648161139,ea4822a528ee3bb453e635d65811542e,PennController,34,0,trial_1_no_cue_UP,NULL,PennController,37,_Header_,Start,1648159876307,CRYSTAL,incong-right.png,2,1699,NULL
1648161139,ea4822a528ee3bb453e635d65811542e,PennController,34,0,trial_1_no_cue_UP,NULL,PennController,37,_Header_,End,1648159876307,CRYSTAL,incong-right.png,2,1699,NULL
1648161139,ea4822a528ee3bb453e635d65811542e,PennController,34,0,trial_1_no_cue_UP,NULL,Canvas,center,Print,NA,1648159877455,CRYSTAL,incong-right.png,2,1699,NULL
1648161139,ea4822a528ee3bb453e635d65811542e,PennController,34,0,trial_1_no_cue_UP,NULL,Key,keypress1,Key,NA,Never,CRYSTAL,incong-right.png,2,1699,NULL
1648161139,ea4822a528ee3bb453e635d65811542e,PennController,34,0,trial_1_no_cue_UP,NULL,PennController,37,_Trial_,End,1648159881662,CRYSTAL,incong-right.png,2,1699,NULL
1648161139,ea4822a528ee3bb453e635d65811542e,PennController,74,0,trial_4_spatial_cue_UP,NULL,PennController,77,_Trial_,Start,1648159881664,CRYSTAL,neutral-left.png,6,1697,NULL
1648161139,ea4822a528ee3bb453e635d65811542e,PennController,74,0,trial_4_spatial_cue_UP,NULL,PennController,77,_Header_,Start,1648159881664,CRYSTAL,neutral-left.png,6,1697,NULL
1648161139,ea4822a528ee3bb453e635d65811542e,PennController,74,0,trial_4_spatial_cue_UP,NULL,PennController,77,_Header_,End,1648159881664,CRYSTAL,neutral-left.png,6,1697,NULL
1648161139,ea4822a528ee3bb453e635d65811542e,PennController,74,0,trial_4_spatial_cue_UP,NULL,Canvas,center,Print,NA,1648159883538,CRYSTAL,neutral-left.png,6,1697,NULL
1648161139,ea4822a528ee3bb453e635d65811542e,PennController,74,0,trial_4_spatial_cue_UP,NULL,Key,keypress1,Key,NA,Never,CRYSTAL,neutral-left.png,6,1697,NULL
1648161139,ea4822a528ee3bb453e635d65811542e,PennController,74,0,trial_4_spatial_cue_UP,NULL,PennController,77,_Trial_,End,1648159885666,CRYSTAL,neutral-left.png,6,1697,NULL
1648161139,ea4822a528ee3bb453e635d65811542e,PennController,40,0,trial_1_no_cue_DOWN,NULL,PennController,43,_Trial_,Start,1648159885667,CRYSTAL,incong-right.png,2,1700,NULL
1648161139,ea4822a528ee3bb453e635d65811542e,PennController,40,0,trial_1_no_cue_DOWN,NULL,PennController,43,_Header_,Start,1648159885667,CRYSTAL,incong-right.png,2,1700,NULL
1648161139,ea4822a528ee3bb453e635d65811542e,PennController,40,0,trial_1_no_cue_DOWN,NULL,PennController,43,_Header_,End,1648159885667,CRYSTAL,incong-right.png,2,1700,NULL
1648161139,ea4822a528ee3bb453e635d65811542e,PennController,40,0,trial_1_no_cue_DOWN,NULL,Canvas,center,Print,NA,1648159886851,CRYSTAL,incong-right.png,2,1700,NULL
1648161139,ea4822a528ee3bb453e635d65811542e,PennController,40,0,trial_1_no_cue_DOWN,NULL,Key,keypress1,Key,NA,Never,CRYSTAL,incong-right.png,2,1700,NULL
1648161139,ea4822a528ee3bb453e635d65811542e,PennController,40,0,trial_1_no_cue_DOWN,NULL,PennController,43,_Trial_,End,1648159891056,CRYSTAL,incong-right.png,2,1700,NULL
1648161139,ea4822a528ee3bb453e635d65811542e,PennController,76,0,trial_4_spatial_cue_DOWN,NULL,PennController,79,_Trial_,Start,1648159891059,CRYSTAL,incong-right.png,2,1698,NULL
1648161139,ea4822a528ee3bb453e635d65811542e,PennController,76,0,trial_4_spatial_cue_DOWN,NULL,PennController,79,_Header_,Start,1648159891059,CRYSTAL,incong-right.png,2,1698,NULL
1648161139,ea4822a528ee3bb453e635d65811542e,PennController,76,0,trial_4_spatial_cue_DOWN,NULL,PennController,79,_Header_,End,1648159891059,CRYSTAL,incong-right.png,2,1698,NULL
1648161139,ea4822a528ee3bb453e635d65811542e,PennController,76,0,trial_4_spatial_cue_DOWN,NULL,Canvas,center,Print,NA,1648159892449,CRYSTAL,incong-right.png,2,1698,NULL
1648161139,ea4822a528ee3bb453e635d65811542e,PennController,76,0,trial_4_spatial_cue_DOWN,NULL,Key,keypress1,Key,NA,Never,CRYSTAL,incong-right.png,2,1698,NULL
1648161139,ea4822a528ee3bb453e635d65811542e,PennController,76,0,trial_4_spatial_cue_DOWN,NULL,PennController,79,_Trial_,End,1648159895060,CRYSTAL,incong-right.png,2,1698,NULL
1648161139,ea4822a528ee3bb453e635d65811542e,PennController,76,0,trial_4_spatial_cue_DOWN,NULL,PennController,79,_Trial_,Start,1648159895063,CRYSTAL,incong-right.png,2,1700,NULL
1648161139,ea4822a528ee3bb453e635d65811542e,PennController,76,0,trial_4_spatial_cue_DOWN,NULL,PennController,79,_Header_,Start,1648159895063,CRYSTAL,incong-right.png,2,1700,NULL
1648161139,ea4822a528ee3bb453e635d65811542e,PennController,76,0,trial_4_spatial_cue_DOWN,NULL,PennController,79,_Header_,End,1648159895063,CRYSTAL,incong-right.png,2,1700,NULL
1648161139,ea4822a528ee3bb453e635d65811542e,PennController,76,0,trial_4_spatial_cue_DOWN,NULL,Canvas,center,Print,NA,1648159896457,CRYSTAL,incong-right.png,2,1700,NULL
1648161139,ea4822a528ee3bb453e635d65811542e,PennController,76,0,trial_4_spatial_cue_DOWN,NULL,Key,keypress1,Key,NA,Never,CRYSTAL,incong-right.png,2,1700,NULL
1648161139,ea4822a528ee3bb453e635d65811542e,PennController,76,0,trial_4_spatial_cue_DOWN,NULL,PennController,79,_Trial_,End,1648159899069,CRYSTAL,incong-right.png,2,1700,NULL
1648161139,ea4822a528ee3bb453e635d65811542e,PennController,35,0,trial_1_no_cue_UP,NULL,PennController,38,_Trial_,Start,1648159899071,CRYSTAL,neutral-right.png,3,1696,NULL
1648161139,ea4822a528ee3bb453e635d65811542e,PennController,35,0,trial_1_no_cue_UP,NULL,PennController,38,_Header_,Start,1648159899071,CRYSTAL,neutral-right.png,3,1696,NULL
1648161139,ea4822a528ee3bb453e635d65811542e,PennController,35,0,trial_1_no_cue_UP,NULL,PennController,38,_Header_,End,1648159899071,CRYSTAL,neutral-right.png,3,1696,NULL
1648161139,ea4822a528ee3bb453e635d65811542e,PennController,35,0,trial_1_no_cue_UP,NULL,Canvas,center,Print,NA,1648159900535,CRYSTAL,neutral-right.png,3,1696,NULL
1648161139,ea4822a528ee3bb453e635d65811542e,PennController,35,0,trial_1_no_cue_UP,NULL,Key,keypress1,Key,NA,Never,CRYSTAL,neutral-right.png,3,1696,NULL
1648161139,ea4822a528ee3bb453e635d65811542e,PennController,35,0,trial_1_no_cue_UP,NULL,PennController,38,_Trial_,End,1648159904738,CRYSTAL,neutral-right.png,3,1696,NULL
1648161139,ea4822a528ee3bb453e635d65811542e,PennController,58,0,trial_3_double_cue_UP,NULL,PennController,61,_Trial_,Start,1648159904739,CRYSTAL,incong-right.png,2,1698,NULL
1648161139,ea4822a528ee3bb453e635d65811542e,PennController,58,0,trial_3_double_cue_UP,NULL,PennController,61,_Header_,Start,1648159904739,CRYSTAL,incong-right.png,2,1698,NULL
1648161139,ea4822a528ee3bb453e635d65811542e,PennController,58,0,trial_3_double_cue_UP,NULL,PennController,61,_Header_,End,1648159904739,CRYSTAL,incong-right.png,2,1698,NULL
1648161139,ea4822a528ee3bb453e635d65811542e,PennController,58,0,trial_3_double_cue_UP,NULL,Canvas,center,Print,NA,1648159906192,CRYSTAL,incong-right.png,2,1698,NULL
1648161139,ea4822a528ee3bb453e635d65811542e,PennController,58,0,trial_3_double_cue_UP,NULL,Key,keypress1,Key,NA,Never,CRYSTAL,incong-right.png,2,1698,NULL
1648161139,ea4822a528ee3bb453e635d65811542e,PennController,58,0,trial_3_double_cue_UP,NULL,PennController,61,_Trial_,End,1648159908742,CRYSTAL,incong-right.png,2,1698,NULL
1648161139,ea4822a528ee3bb453e635d65811542e,PennController,52,0,trial_2_center_cue_DOWN,NULL,PennController,55,_Trial_,Start,1648159908745,CRYSTAL,incong-right.png,2,1698,NULL
1648161139,ea4822a528ee3bb453e635d65811542e,PennController,52,0,trial_2_center_cue_DOWN,NULL,PennController,55,_Header_,Start,1648159908745,CRYSTAL,incong-right.png,2,1698,NULL
1648161139,ea4822a528ee3bb453e635d65811542e,PennController,52,0,trial_2_center_cue_DOWN,NULL,PennController,55,_Header_,End,1648159908745,CRYSTAL,incong-right.png,2,1698,NULL
1648161139,ea4822a528ee3bb453e635d65811542e,PennController,52,0,trial_2_center_cue_DOWN,NULL,Canvas,center,Print,NA,1648159910574,CRYSTAL,incong-right.png,2,1698,NULL
1648161139,ea4822a528ee3bb453e635d65811542e,PennController,52,0,trial_2_center_cue_DOWN,NULL,Key,keypress1,Key,NA,Never,CRYSTAL,incong-right.png,2,1698,NULL
1648161139,ea4822a528ee3bb453e635d65811542e,PennController,52,0,trial_2_center_cue_DOWN,NULL,PennController,55,_Trial_,End,1648159912750,CRYSTAL,incong-right.png,2,1698,NULL
1648161139,ea4822a528ee3bb453e635d65811542e,PennController,56,0,trial_2_center_cue_DOWN,NULL,PennController,59,_Trial_,Start,1648159912752,CRYSTAL,neutral-left.png,6,1697,NULL
1648161139,ea4822a528ee3bb453e635d65811542e,PennController,56,0,trial_2_center_cue_DOWN,NULL,PennController,59,_Header_,Start,1648159912752,CRYSTAL,neutral-left.png,6,1697,NULL
1648161139,ea4822a528ee3bb453e635d65811542e,PennController,56,0,trial_2_center_cue_DOWN,NULL,PennController,59,_Header_,End,1648159912752,CRYSTAL,neutral-left.png,6,1697,NULL
1648161139,ea4822a528ee3bb453e635d65811542e,PennController,56,0,trial_2_center_cue_DOWN,NULL,Canvas,center,Print,NA,1648159914310,CRYSTAL,neutral-left.png,6,1697,NULL
1648161139,ea4822a528ee3bb453e635d65811542e,PennController,56,0,trial_2_center_cue_DOWN,NULL,Key,keypress1,Key,NA,Never,CRYSTAL,neutral-left.png,6,1697,NULL
1648161139,ea4822a528ee3bb453e635d65811542e,PennController,56,0,trial_2_center_cue_DOWN,NULL,PennController,59,_Trial_,End,1648159916755,CRYSTAL,neutral-left.png,6,1697,NULL
1648161139,ea4822a528ee3bb453e635d65811542e,PennController,67,0,trial_3_double_cue_DOWN,NULL,PennController,70,_Trial_,Start,1648159916757,CRYSTAL,incong-left.png,5,1698,NULL
1648161139,ea4822a528ee3bb453e635d65811542e,PennController,67,0,trial_3_double_cue_DOWN,NULL,PennController,70,_Header_,Start,1648159916757,CRYSTAL,incong-left.png,5,1698,NULL
1648161139,ea4822a528ee3bb453e635d65811542e,PennController,67,0,trial_3_double_cue_DOWN,NULL,PennController,70,_Header_,End,1648159916757,CRYSTAL,incong-left.png,5,1698,NULL
1648161139,ea4822a528ee3bb453e635d65811542e,PennController,67,0,trial_3_double_cue_DOWN,NULL,Canvas,center,Print,NA,1648159917744,CRYSTAL,incong-left.png,5,1698,NULL
1648161139,ea4822a528ee3bb453e635d65811542e,PennController,67,0,trial_3_double_cue_DOWN,NULL,Key,keypress1,Key,NA,Never,CRYSTAL,incong-left.png,5,1698,NULL
1648161139,ea4822a528ee3bb453e635d65811542e,PennController,67,0,trial_3_double_cue_DOWN,NULL,PennController,70,_Trial_,End,1648159920762,CRYSTAL,incong-left.png,5,1698,NULL
1648161139,ea4822a528ee3bb453e635d65811542e,PennController,62,0,trial_3_double_cue_UP,NULL,PennController,65,_Trial_,Start,1648159920764,CRYSTAL,neutral-left.png,6,1696,NULL
1648161139,ea4822a528ee3bb453e635d65811542e,PennController,62,0,trial_3_double_cue_UP,NULL,PennController,65,_Header_,Start,1648159920764,CRYSTAL,neutral-left.png,6,1696,NULL
1648161139,ea4822a528ee3bb453e635d65811542e,PennController,62,0,trial_3_double_cue_UP,NULL,PennController,65,_Header_,End,1648159920764,CRYSTAL,neutral-left.png,6,1696,NULL
1648161139,ea4822a528ee3bb453e635d65811542e,PennController,62,0,trial_3_double_cue_UP,NULL,Canvas,center,Print,NA,1648159922675,CRYSTAL,neutral-left.png,6,1696,NULL
1648161139,ea4822a528ee3bb453e635d65811542e,PennController,62,0,trial_3_double_cue_UP,NULL,Key,keypress1,Key,NA,Never,CRYSTAL,neutral-left.png,6,1696,NULL
1648161139,ea4822a528ee3bb453e635d65811542e,PennController,62,0,trial_3_double_cue_UP,NULL,PennController,65,_Trial_,End,1648159924767,CRYSTAL,neutral-left.png,6,1696,NULL
1648161139,ea4822a528ee3bb453e635d65811542e,PennController,65,0,trial_3_double_cue_DOWN,NULL,PennController,68,_Trial_,Start,1648159924769,CRYSTAL,neutral-right.png,3,1697,NULL
1648161139,ea4822a528ee3bb453e635d65811542e,PennController,65,0,trial_3_double_cue_DOWN,NULL,PennController,68,_Header_,Start,1648159924769,CRYSTAL,neutral-right.png,3,1697,NULL
1648161139,ea4822a528ee3bb453e635d65811542e,PennController,65,0,trial_3_double_cue_DOWN,NULL,PennController,68,_Header_,End,1648159924769,CRYSTAL,neutral-right.png,3,1697,NULL
1648161139,ea4822a528ee3bb453e635d65811542e,PennController,65,0,trial_3_double_cue_DOWN,NULL,Canvas,center,Print,NA,1648159925899,CRYSTAL,neutral-right.png,3,1697,NULL
1648161139,ea4822a528ee3bb453e635d65811542e,PennController,65,0,trial_3_double_cue_DOWN,NULL,Key,keypress1,Key,NA,Never,CRYSTAL,neutral-right.png,3,1697,NULL
1648161139,ea4822a528ee3bb453e635d65811542e,PennController,65,0,trial_3_double_cue_DOWN,NULL,PennController,68,_Trial_,End,1648159928770,CRYSTAL,neutral-right.png,3,1697,NULL
1648161139,ea4822a528ee3bb453e635d65811542e,PennController,73,0,trial_4_spatial_cue_UP,NULL,PennController,76,_Trial_,Start,1648159928771,CRYSTAL,incong-left.png,5,1696,NULL
1648161139,ea4822a528ee3bb453e635d65811542e,PennController,73,0,trial_4_spatial_cue_UP,NULL,PennController,76,_Header_,Start,1648159928771,CRYSTAL,incong-left.png,5,1696,NULL
1648161139,ea4822a528ee3bb453e635d65811542e,PennController,73,0,trial_4_spatial_cue_UP,NULL,PennController,76,_Header_,End,1648159928771,CRYSTAL,incong-left.png,5,1696,NULL
1648161139,ea4822a528ee3bb453e635d65811542e,PennController,73,0,trial_4_spatial_cue_UP,NULL,Canvas,center,Print,NA,1648159929712,CRYSTAL,incong-left.png,5,1696,NULL
1648161139,ea4822a528ee3bb453e635d65811542e,PennController,73,0,trial_4_spatial_cue_UP,NULL,Key,keypress1,Key,NA,Never,CRYSTAL,incong-left.png,5,1696,NULL
1648161139,ea4822a528ee3bb453e635d65811542e,PennController,73,0,trial_4_spatial_cue_UP,NULL,PennController,76,_Trial_,End,1648159932775,CRYSTAL,incong-left.png,5,1696,NULL
1648161139,ea4822a528ee3bb453e635d65811542e,PennController,39,0,trial_1_no_cue_DOWN,NULL,PennController,42,_Trial_,Start,1648159932778,CRYSTAL,cong-right.png,1,1696,NULL
1648161139,ea4822a528ee3bb453e635d65811542e,PennController,39,0,trial_1_no_cue_DOWN,NULL,PennController,42,_Header_,Start,1648159932778,CRYSTAL,cong-right.png,1,1696,NULL
1648161139,ea4822a528ee3bb453e635d65811542e,PennController,39,0,trial_1_no_cue_DOWN,NULL,PennController,42,_Header_,End,1648159932778,CRYSTAL,cong-right.png,1,1696,NULL
1648161139,ea4822a528ee3bb453e635d65811542e,PennController,39,0,trial_1_no_cue_DOWN,NULL,Canvas,center,Print,NA,1648159934766,CRYSTAL,cong-right.png,1,1696,NULL
1648161139,ea4822a528ee3bb453e635d65811542e,PennController,39,0,trial_1_no_cue_DOWN,NULL,Key,keypress1,Key,NA,Never,CRYSTAL,cong-right.png,1,1696,NULL
1648161139,ea4822a528ee3bb453e635d65811542e,PennController,39,0,trial_1_no_cue_DOWN,NULL,PennController,42,_Trial_,End,1648159938971,CRYSTAL,cong-right.png,1,1696,NULL
1648161139,ea4822a528ee3bb453e635d65811542e,PennController,46,0,trial_2_center_cue_UP,NULL,PennController,49,_Trial_,Start,1648159938973,CRYSTAL,incong-right.png,2,1697,NULL
1648161139,ea4822a528ee3bb453e635d65811542e,PennController,46,0,trial_2_center_cue_UP,NULL,PennController,49,_Header_,Start,1648159938973,CRYSTAL,incong-right.png,2,1697,NULL
1648161139,ea4822a528ee3bb453e635d65811542e,PennController,46,0,trial_2_center_cue_UP,NULL,PennController,49,_Header_,End,1648159938973,CRYSTAL,incong-right.png,2,1697,NULL
1648161139,ea4822a528ee3bb453e635d65811542e,PennController,46,0,trial_2_center_cue_UP,NULL,Canvas,center,Print,NA,1648159940899,CRYSTAL,incong-right.png,2,1697,NULL
1648161139,ea4822a528ee3bb453e635d65811542e,PennController,46,0,trial_2_center_cue_UP,NULL,Key,keypress1,Key,NA,Never,CRYSTAL,incong-right.png,2,1697,NULL
1648161139,ea4822a528ee3bb453e635d65811542e,PennController,46,0,trial_2_center_cue_UP,NULL,PennController,49,_Trial_,End,1648159942976,CRYSTAL,incong-right.png,2,1697,NULL
1648161139,ea4822a528ee3bb453e635d65811542e,PennController,45,0,trial_2_center_cue_UP,NULL,PennController,48,_Trial_,Start,1648159942977,CRYSTAL,cong-right.png,1,1250,NULL
1648161139,ea4822a528ee3bb453e635d65811542e,PennController,45,0,trial_2_center_cue_UP,NULL,PennController,48,_Header_,Start,1648159942977,CRYSTAL,cong-right.png,1,1250,NULL
1648161139,ea4822a528ee3bb453e635d65811542e,PennController,45,0,trial_2_center_cue_UP,NULL,PennController,48,_Header_,End,1648159942977,CRYSTAL,cong-right.png,1,1250,NULL
1648161139,ea4822a528ee3bb453e635d65811542e,PennController,45,0,trial_2_center_cue_UP,NULL,Canvas,center,Print,NA,1648159944008,CRYSTAL,cong-right.png,1,1250,NULL
1648161139,ea4822a528ee3bb453e635d65811542e,PennController,45,0,trial_2_center_cue_UP,NULL,Key,keypress1,PressedKey,S,1648159945259,CRYSTAL,cong-right.png,1,1250,NULL
1648161139,ea4822a528ee3bb453e635d65811542e,PennController,45,0,trial_2_center_cue_UP,NULL,PennController,48,_Trial_,End,1648159946978,CRYSTAL,cong-right.png,1,1250,NULL
1648161139,ea4822a528ee3bb453e635d65811542e,PennController,38,0,trial_1_no_cue_UP,NULL,PennController,41,_Trial_,Start,1648159946980,CRYSTAL,neutral-left.png,6,1701,NULL
1648161139,ea4822a528ee3bb453e635d65811542e,PennController,38,0,trial_1_no_cue_UP,NULL,PennController,41,_Header_,Start,1648159946980,CRYSTAL,neutral-left.png,6,1701,NULL
1648161139,ea4822a528ee3bb453e635d65811542e,PennController,38,0,trial_1_no_cue_UP,NULL,PennController,41,_Header_,End,1648159946980,CRYSTAL,neutral-left.png,6,1701,NULL
1648161139,ea4822a528ee3bb453e635d65811542e,PennController,38,0,trial_1_no_cue_UP,NULL,Canvas,center,Print,NA,1648159948322,CRYSTAL,neutral-left.png,6,1701,NULL
1648161139,ea4822a528ee3bb453e635d65811542e,PennController,38,0,trial_1_no_cue_UP,NULL,Key,keypress1,Key,NA,Never,CRYSTAL,neutral-left.png,6,1701,NULL
1648161139,ea4822a528ee3bb453e635d65811542e,PennController,38,0,trial_1_no_cue_UP,NULL,PennController,41,_Trial_,End,1648159952526,CRYSTAL,neutral-left.png,6,1701,NULL
1648161139,ea4822a528ee3bb453e635d65811542e,PennController,72,0,trial_4_spatial_cue_UP,NULL,PennController,75,_Trial_,Start,1648159952528,CRYSTAL,cong-left.png,4,1700,NULL
1648161139,ea4822a528ee3bb453e635d65811542e,PennController,72,0,trial_4_spatial_cue_UP,NULL,PennController,75,_Header_,Start,1648159952528,CRYSTAL,cong-left.png,4,1700,NULL
1648161139,ea4822a528ee3bb453e635d65811542e,PennController,72,0,trial_4_spatial_cue_UP,NULL,PennController,75,_Header_,End,1648159952528,CRYSTAL,cong-left.png,4,1700,NULL
1648161139,ea4822a528ee3bb453e635d65811542e,PennController,72,0,trial_4_spatial_cue_UP,NULL,Canvas,center,Print,NA,1648159954356,CRYSTAL,cong-left.png,4,1700,NULL
1648161139,ea4822a528ee3bb453e635d65811542e,PennController,72,0,trial_4_spatial_cue_UP,NULL,Key,keypress1,Key,NA,Never,CRYSTAL,cong-left.png,4,1700,NULL
1648161139,ea4822a528ee3bb453e635d65811542e,PennController,72,0,trial_4_spatial_cue_UP,NULL,PennController,75,_Trial_,End,1648159956531,CRYSTAL,cong-left.png,4,1700,NULL
1648161139,ea4822a528ee3bb453e635d65811542e,PennController,42,0,trial_1_no_cue_DOWN,NULL,PennController,45,_Trial_,Start,1648159956532,CRYSTAL,cong-left.png,4,1699,NULL
1648161139,ea4822a528ee3bb453e635d65811542e,PennController,42,0,trial_1_no_cue_DOWN,NULL,PennController,45,_Header_,Start,1648159956533,CRYSTAL,cong-left.png,4,1699,NULL
1648161139,ea4822a528ee3bb453e635d65811542e,PennController,42,0,trial_1_no_cue_DOWN,NULL,PennController,45,_Header_,End,1648159956533,CRYSTAL,cong-left.png,4,1699,NULL
1648161139,ea4822a528ee3bb453e635d65811542e,PennController,42,0,trial_1_no_cue_DOWN,NULL,Canvas,center,Print,NA,1648159958506,CRYSTAL,cong-left.png,4,1699,NULL
1648161139,ea4822a528ee3bb453e635d65811542e,PennController,42,0,trial_1_no_cue_DOWN,NULL,Key,keypress1,Key,NA,Never,CRYSTAL,cong-left.png,4,1699,NULL
1648161139,ea4822a528ee3bb453e635d65811542e,PennController,42,0,trial_1_no_cue_DOWN,NULL,PennController,45,_Trial_,End,1648159962713,CRYSTAL,cong-left.png,4,1699,NULL
1648161139,ea4822a528ee3bb453e635d65811542e,PennController,79,0,trial_4_spatial_cue_DOWN,NULL,PennController,82,_Trial_,Start,1648159962715,CRYSTAL,incong-left.png,5,1698,NULL
1648161139,ea4822a528ee3bb453e635d65811542e,PennController,79,0,trial_4_spatial_cue_DOWN,NULL,PennController,82,_Header_,Start,1648159962715,CRYSTAL,incong-left.png,5,1698,NULL
1648161139,ea4822a528ee3bb453e635d65811542e,PennController,79,0,trial_4_spatial_cue_DOWN,NULL,PennController,82,_Header_,End,1648159962715,CRYSTAL,incong-left.png,5,1698,NULL
1648161139,ea4822a528ee3bb453e635d65811542e,PennController,79,0,trial_4_spatial_cue_DOWN,NULL,Canvas,center,Print,NA,1648159964163,CRYSTAL,incong-left.png,5,1698,NULL
1648161139,ea4822a528ee3bb453e635d65811542e,PennController,79,0,trial_4_spatial_cue_DOWN,NULL,Key,keypress1,Key,NA,Never,CRYSTAL,incong-left.png,5,1698,NULL
1648161139,ea4822a528ee3bb453e635d65811542e,PennController,79,0,trial_4_spatial_cue_DOWN,NULL,PennController,82,_Trial_,End,1648159966716,CRYSTAL,incong-left.png,5,1698,NULL
1648161139,ea4822a528ee3bb453e635d65811542e,PennController,77,0,trial_4_spatial_cue_DOWN,NULL,PennController,80,_Trial_,Start,1648159966717,CRYSTAL,neutral-right.png,3,1699,NULL
1648161139,ea4822a528ee3bb453e635d65811542e,PennController,77,0,trial_4_spatial_cue_DOWN,NULL,PennController,80,_Header_,Start,1648159966717,CRYSTAL,neutral-right.png,3,1699,NULL
1648161139,ea4822a528ee3bb453e635d65811542e,PennController,77,0,trial_4_spatial_cue_DOWN,NULL,PennController,80,_Header_,End,1648159966717,CRYSTAL,neutral-right.png,3,1699,NULL
1648161139,ea4822a528ee3bb453e635d65811542e,PennController,77,0,trial_4_spatial_cue_DOWN,NULL,Canvas,center,Print,NA,1648159968638,CRYSTAL,neutral-right.png,3,1699,NULL
1648161139,ea4822a528ee3bb453e635d65811542e,PennController,77,0,trial_4_spatial_cue_DOWN,NULL,Key,keypress1,Key,NA,Never,CRYSTAL,neutral-right.png,3,1699,NULL
1648161139,ea4822a528ee3bb453e635d65811542e,PennController,77,0,trial_4_spatial_cue_DOWN,NULL,PennController,80,_Trial_,End,1648159970719,CRYSTAL,neutral-right.png,3,1699,NULL
1648161139,ea4822a528ee3bb453e635d65811542e,PennController,37,0,trial_1_no_cue_UP,NULL,PennController,40,_Trial_,Start,1648159970721,CRYSTAL,incong-left.png,5,1696,NULL
1648161139,ea4822a528ee3bb453e635d65811542e,PennController,37,0,trial_1_no_cue_UP,NULL,PennController,40,_Header_,Start,1648159970721,CRYSTAL,incong-left.png,5,1696,NULL
1648161139,ea4822a528ee3bb453e635d65811542e,PennController,37,0,trial_1_no_cue_UP,NULL,PennController,40,_Header_,End,1648159970721,CRYSTAL,incong-left.png,5,1696,NULL
1648161139,ea4822a528ee3bb453e635d65811542e,PennController,37,0,trial_1_no_cue_UP,NULL,Canvas,center,Print,NA,1648159972625,CRYSTAL,incong-left.png,5,1696,NULL
1648161139,ea4822a528ee3bb453e635d65811542e,PennController,37,0,trial_1_no_cue_UP,NULL,Key,keypress1,Key,NA,Never,CRYSTAL,incong-left.png,5,1696,NULL
1648161139,ea4822a528ee3bb453e635d65811542e,PennController,37,0,trial_1_no_cue_UP,NULL,PennController,40,_Trial_,End,1648159976829,CRYSTAL,incong-left.png,5,1696,NULL
1648161139,ea4822a528ee3bb453e635d65811542e,PennController,59,0,trial_3_double_cue_UP,NULL,PennController,62,_Trial_,Start,1648159976831,CRYSTAL,neutral-right.png,3,1698,NULL
1648161139,ea4822a528ee3bb453e635d65811542e,PennController,59,0,trial_3_double_cue_UP,NULL,PennController,62,_Header_,Start,1648159976831,CRYSTAL,neutral-right.png,3,1698,NULL
1648161139,ea4822a528ee3bb453e635d65811542e,PennController,59,0,trial_3_double_cue_UP,NULL,PennController,62,_Header_,End,1648159976831,CRYSTAL,neutral-right.png,3,1698,NULL
1648161139,ea4822a528ee3bb453e635d65811542e,PennController,59,0,trial_3_double_cue_UP,NULL,Canvas,center,Print,NA,1648159978482,CRYSTAL,neutral-right.png,3,1698,NULL
1648161139,ea4822a528ee3bb453e635d65811542e,PennController,59,0,trial_3_double_cue_UP,NULL,Key,keypress1,Key,NA,Never,CRYSTAL,neutral-right.png,3,1698,NULL
1648161139,ea4822a528ee3bb453e635d65811542e,PennController,59,0,trial_3_double_cue_UP,NULL,PennController,62,_Trial_,End,1648159980837,CRYSTAL,neutral-right.png,3,1698,NULL
1648161139,ea4822a528ee3bb453e635d65811542e,PennController,53,0,trial_2_center_cue_DOWN,NULL,PennController,56,_Trial_,Start,1648159980838,CRYSTAL,neutral-right.png,3,1700,NULL
1648161139,ea4822a528ee3bb453e635d65811542e,PennController,53,0,trial_2_center_cue_DOWN,NULL,PennController,56,_Header_,Start,1648159980838,CRYSTAL,neutral-right.png,3,1700,NULL
1648161139,ea4822a528ee3bb453e635d65811542e,PennController,53,0,trial_2_center_cue_DOWN,NULL,PennController,56,_Header_,End,1648159980838,CRYSTAL,neutral-right.png,3,1700,NULL
1648161139,ea4822a528ee3bb453e635d65811542e,PennController,53,0,trial_2_center_cue_DOWN,NULL,Canvas,center,Print,NA,1648159981992,CRYSTAL,neutral-right.png,3,1700,NULL
1648161139,ea4822a528ee3bb453e635d65811542e,PennController,53,0,trial_2_center_cue_DOWN,NULL,Key,keypress1,Key,NA,Never,CRYSTAL,neutral-right.png,3,1700,NULL
1648161139,ea4822a528ee3bb453e635d65811542e,PennController,53,0,trial_2_center_cue_DOWN,NULL,PennController,56,_Trial_,End,1648159984843,CRYSTAL,neutral-right.png,3,1700,NULL
1648161139,ea4822a528ee3bb453e635d65811542e,PennController,53,0,trial_2_center_cue_DOWN,NULL,PennController,56,_Trial_,Start,1648159984845,CRYSTAL,neutral-right.png,3,1697,NULL
1648161139,ea4822a528ee3bb453e635d65811542e,PennController,53,0,trial_2_center_cue_DOWN,NULL,PennController,56,_Header_,Start,1648159984845,CRYSTAL,neutral-right.png,3,1697,NULL
1648161139,ea4822a528ee3bb453e635d65811542e,PennController,53,0,trial_2_center_cue_DOWN,NULL,PennController,56,_Header_,End,1648159984845,CRYSTAL,neutral-right.png,3,1697,NULL
1648161139,ea4822a528ee3bb453e635d65811542e,PennController,53,0,trial_2_center_cue_DOWN,NULL,Canvas,center,Print,NA,1648159985994,CRYSTAL,neutral-right.png,3,1697,NULL
1648161139,ea4822a528ee3bb453e635d65811542e,PennController,53,0,trial_2_center_cue_DOWN,NULL,Key,keypress1,Key,NA,Never,CRYSTAL,neutral-right.png,3,1697,NULL
1648161139,ea4822a528ee3bb453e635d65811542e,PennController,53,0,trial_2_center_cue_DOWN,NULL,PennController,56,_Trial_,End,1648159988850,CRYSTAL,neutral-right.png,3,1697,NULL
1648161139,ea4822a528ee3bb453e635d65811542e,PennController,66,0,trial_3_double_cue_DOWN,NULL,PennController,69,_Trial_,Start,1648159988852,CRYSTAL,cong-left.png,4,1697,NULL
1648161139,ea4822a528ee3bb453e635d65811542e,PennController,66,0,trial_3_double_cue_DOWN,NULL,PennController,69,_Header_,Start,1648159988852,CRYSTAL,cong-left.png,4,1697,NULL
1648161139,ea4822a528ee3bb453e635d65811542e,PennController,66,0,trial_3_double_cue_DOWN,NULL,PennController,69,_Header_,End,1648159988852,CRYSTAL,cong-left.png,4,1697,NULL
1648161139,ea4822a528ee3bb453e635d65811542e,PennController,66,0,trial_3_double_cue_DOWN,NULL,Canvas,center,Print,NA,1648159989891,CRYSTAL,cong-left.png,4,1697,NULL
1648161139,ea4822a528ee3bb453e635d65811542e,PennController,66,0,trial_3_double_cue_DOWN,NULL,Key,keypress1,Key,NA,Never,CRYSTAL,cong-left.png,4,1697,NULL
1648161139,ea4822a528ee3bb453e635d65811542e,PennController,66,0,trial_3_double_cue_DOWN,NULL,PennController,69,_Trial_,End,1648159992854,CRYSTAL,cong-left.png,4,1697,NULL
1648161139,ea4822a528ee3bb453e635d65811542e,PennController,58,0,trial_3_double_cue_UP,NULL,PennController,61,_Trial_,Start,1648159992856,CRYSTAL,incong-right.png,2,1698,NULL
1648161139,ea4822a528ee3bb453e635d65811542e,PennController,58,0,trial_3_double_cue_UP,NULL,PennController,61,_Header_,Start,1648159992856,CRYSTAL,incong-right.png,2,1698,NULL
1648161139,ea4822a528ee3bb453e635d65811542e,PennController,58,0,trial_3_double_cue_UP,NULL,PennController,61,_Header_,End,1648159992856,CRYSTAL,incong-right.png,2,1698,NULL
1648161139,ea4822a528ee3bb453e635d65811542e,PennController,58,0,trial_3_double_cue_UP,NULL,Canvas,center,Print,NA,1648159994310,CRYSTAL,incong-right.png,2,1698,NULL
1648161139,ea4822a528ee3bb453e635d65811542e,PennController,58,0,trial_3_double_cue_UP,NULL,Key,keypress1,Key,NA,Never,CRYSTAL,incong-right.png,2,1698,NULL
1648161139,ea4822a528ee3bb453e635d65811542e,PennController,58,0,trial_3_double_cue_UP,NULL,PennController,61,_Trial_,End,1648159996859,CRYSTAL,incong-right.png,2,1698,NULL
1648161139,ea4822a528ee3bb453e635d65811542e,PennController,68,0,trial_3_double_cue_DOWN,NULL,PennController,71,_Trial_,Start,1648159996861,CRYSTAL,neutral-left.png,6,1697,NULL
1648161139,ea4822a528ee3bb453e635d65811542e,PennController,68,0,trial_3_double_cue_DOWN,NULL,PennController,71,_Header_,Start,1648159996861,CRYSTAL,neutral-left.png,6,1697,NULL
1648161139,ea4822a528ee3bb453e635d65811542e,PennController,68,0,trial_3_double_cue_DOWN,NULL,PennController,71,_Header_,End,1648159996861,CRYSTAL,neutral-left.png,6,1697,NULL
1648161139,ea4822a528ee3bb453e635d65811542e,PennController,68,0,trial_3_double_cue_DOWN,NULL,Canvas,center,Print,NA,1648159998337,CRYSTAL,neutral-left.png,6,1697,NULL
1648161139,ea4822a528ee3bb453e635d65811542e,PennController,68,0,trial_3_double_cue_DOWN,NULL,Key,keypress1,Key,NA,Never,CRYSTAL,neutral-left.png,6,1697,NULL
1648161139,ea4822a528ee3bb453e635d65811542e,PennController,68,0,trial_3_double_cue_DOWN,NULL,PennController,71,_Trial_,End,1648160000865,CRYSTAL,neutral-left.png,6,1697,NULL
1648161139,ea4822a528ee3bb453e635d65811542e,PennController,69,0,trial_4_spatial_cue_UP,NULL,PennController,72,_Trial_,Start,1648160000867,CRYSTAL,cong-right.png,1,1698,NULL
1648161139,ea4822a528ee3bb453e635d65811542e,PennController,69,0,trial_4_spatial_cue_UP,NULL,PennController,72,_Header_,Start,1648160000867,CRYSTAL,cong-right.png,1,1698,NULL
1648161139,ea4822a528ee3bb453e635d65811542e,PennController,69,0,trial_4_spatial_cue_UP,NULL,PennController,72,_Header_,End,1648160000867,CRYSTAL,cong-right.png,1,1698,NULL
1648161139,ea4822a528ee3bb453e635d65811542e,PennController,69,0,trial_4_spatial_cue_UP,NULL,Canvas,center,Print,NA,1648160002456,CRYSTAL,cong-right.png,1,1698,NULL
1648161139,ea4822a528ee3bb453e635d65811542e,PennController,69,0,trial_4_spatial_cue_UP,NULL,Key,keypress1,Key,NA,Never,CRYSTAL,cong-right.png,1,1698,NULL
1648161139,ea4822a528ee3bb453e635d65811542e,PennController,69,0,trial_4_spatial_cue_UP,NULL,PennController,72,_Trial_,End,1648160004870,CRYSTAL,cong-right.png,1,1698,NULL
1648161139,ea4822a528ee3bb453e635d65811542e,PennController,43,0,trial_1_no_cue_DOWN,NULL,PennController,46,_Trial_,Start,1648160004871,CRYSTAL,incong-left.png,5,1700,NULL
1648161139,ea4822a528ee3bb453e635d65811542e,PennController,43,0,trial_1_no_cue_DOWN,NULL,PennController,46,_Header_,Start,1648160004871,CRYSTAL,incong-left.png,5,1700,NULL
1648161139,ea4822a528ee3bb453e635d65811542e,PennController,43,0,trial_1_no_cue_DOWN,NULL,PennController,46,_Header_,End,1648160004871,CRYSTAL,incong-left.png,5,1700,NULL
1648161139,ea4822a528ee3bb453e635d65811542e,PennController,43,0,trial_1_no_cue_DOWN,NULL,Canvas,center,Print,NA,1648160006189,CRYSTAL,incong-left.png,5,1700,NULL
1648161139,ea4822a528ee3bb453e635d65811542e,PennController,43,0,trial_1_no_cue_DOWN,NULL,Key,keypress1,Key,NA,Never,CRYSTAL,incong-left.png,5,1700,NULL
1648161139,ea4822a528ee3bb453e635d65811542e,PennController,43,0,trial_1_no_cue_DOWN,NULL,PennController,46,_Trial_,End,1648160010394,CRYSTAL,incong-left.png,5,1700,NULL
1648161139,ea4822a528ee3bb453e635d65811542e,PennController,50,0,trial_2_center_cue_UP,NULL,PennController,53,_Trial_,Start,1648160010397,CRYSTAL,neutral-left.png,6,1696,NULL
1648161139,ea4822a528ee3bb453e635d65811542e,PennController,50,0,trial_2_center_cue_UP,NULL,PennController,53,_Header_,Start,1648160010397,CRYSTAL,neutral-left.png,6,1696,NULL
1648161139,ea4822a528ee3bb453e635d65811542e,PennController,50,0,trial_2_center_cue_UP,NULL,PennController,53,_Header_,End,1648160010397,CRYSTAL,neutral-left.png,6,1696,NULL
1648161139,ea4822a528ee3bb453e635d65811542e,PennController,50,0,trial_2_center_cue_UP,NULL,Canvas,center,Print,NA,1648160012137,CRYSTAL,neutral-left.png,6,1696,NULL
1648161139,ea4822a528ee3bb453e635d65811542e,PennController,50,0,trial_2_center_cue_UP,NULL,Key,keypress1,Key,NA,Never,CRYSTAL,neutral-left.png,6,1696,NULL
1648161139,ea4822a528ee3bb453e635d65811542e,PennController,50,0,trial_2_center_cue_UP,NULL,PennController,53,_Trial_,End,1648160014401,CRYSTAL,neutral-left.png,6,1696,NULL
1648161139,ea4822a528ee3bb453e635d65811542e,PennController,47,0,trial_2_center_cue_UP,NULL,PennController,50,_Trial_,Start,1648160014404,CRYSTAL,neutral-right.png,3,1695,NULL
1648161139,ea4822a528ee3bb453e635d65811542e,PennController,47,0,trial_2_center_cue_UP,NULL,PennController,50,_Header_,Start,1648160014404,CRYSTAL,neutral-right.png,3,1695,NULL
1648161139,ea4822a528ee3bb453e635d65811542e,PennController,47,0,trial_2_center_cue_UP,NULL,PennController,50,_Header_,End,1648160014404,CRYSTAL,neutral-right.png,3,1695,NULL
1648161139,ea4822a528ee3bb453e635d65811542e,PennController,47,0,trial_2_center_cue_UP,NULL,Canvas,center,Print,NA,1648160016375,CRYSTAL,neutral-right.png,3,1695,NULL
1648161139,ea4822a528ee3bb453e635d65811542e,PennController,47,0,trial_2_center_cue_UP,NULL,Key,keypress1,Key,NA,Never,CRYSTAL,neutral-right.png,3,1695,NULL
1648161139,ea4822a528ee3bb453e635d65811542e,PennController,47,0,trial_2_center_cue_UP,NULL,PennController,50,_Trial_,End,1648160018408,CRYSTAL,neutral-right.png,3,1695,NULL
1648161139,ea4822a528ee3bb453e635d65811542e,PennController,33,0,trial_1_no_cue_UP,NULL,PennController,36,_Trial_,Start,1648160018410,CRYSTAL,cong-right.png,1,1702,NULL
1648161139,ea4822a528ee3bb453e635d65811542e,PennController,33,0,trial_1_no_cue_UP,NULL,PennController,36,_Header_,Start,1648160018410,CRYSTAL,cong-right.png,1,1702,NULL
1648161139,ea4822a528ee3bb453e635d65811542e,PennController,33,0,trial_1_no_cue_UP,NULL,PennController,36,_Header_,End,1648160018410,CRYSTAL,cong-right.png,1,1702,NULL
1648161139,ea4822a528ee3bb453e635d65811542e,PennController,33,0,trial_1_no_cue_UP,NULL,Canvas,center,Print,NA,1648160020094,CRYSTAL,cong-right.png,1,1702,NULL
1648161139,ea4822a528ee3bb453e635d65811542e,PennController,33,0,trial_1_no_cue_UP,NULL,Key,keypress1,Key,NA,Never,CRYSTAL,cong-right.png,1,1702,NULL
1648161139,ea4822a528ee3bb453e635d65811542e,PennController,33,0,trial_1_no_cue_UP,NULL,PennController,36,_Trial_,End,1648160024302,CRYSTAL,cong-right.png,1,1702,NULL
1648161139,ea4822a528ee3bb453e635d65811542e,PennController,73,0,trial_4_spatial_cue_UP,NULL,PennController,76,_Trial_,Start,1648160024304,CRYSTAL,incong-left.png,5,1697,NULL
1648161139,ea4822a528ee3bb453e635d65811542e,PennController,73,0,trial_4_spatial_cue_UP,NULL,PennController,76,_Header_,Start,1648160024304,CRYSTAL,incong-left.png,5,1697,NULL
1648161139,ea4822a528ee3bb453e635d65811542e,PennController,73,0,trial_4_spatial_cue_UP,NULL,PennController,76,_Header_,End,1648160024304,CRYSTAL,incong-left.png,5,1697,NULL
1648161139,ea4822a528ee3bb453e635d65811542e,PennController,73,0,trial_4_spatial_cue_UP,NULL,Canvas,center,Print,NA,1648160025243,CRYSTAL,incong-left.png,5,1697,NULL
1648161139,ea4822a528ee3bb453e635d65811542e,PennController,73,0,trial_4_spatial_cue_UP,NULL,Key,keypress1,Key,NA,Never,CRYSTAL,incong-left.png,5,1697,NULL
1648161139,ea4822a528ee3bb453e635d65811542e,PennController,73,0,trial_4_spatial_cue_UP,NULL,PennController,76,_Trial_,End,1648160028307,CRYSTAL,incong-left.png,5,1697,NULL
1648161139,ea4822a528ee3bb453e635d65811542e,PennController,41,0,trial_1_no_cue_DOWN,NULL,PennController,44,_Trial_,Start,1648160028309,CRYSTAL,neutral-right.png,3,1699,NULL
1648161139,ea4822a528ee3bb453e635d65811542e,PennController,41,0,trial_1_no_cue_DOWN,NULL,PennController,44,_Header_,Start,1648160028309,CRYSTAL,neutral-right.png,3,1699,NULL
1648161139,ea4822a528ee3bb453e635d65811542e,PennController,41,0,trial_1_no_cue_DOWN,NULL,PennController,44,_Header_,End,1648160028309,CRYSTAL,neutral-right.png,3,1699,NULL
1648161139,ea4822a528ee3bb453e635d65811542e,PennController,41,0,trial_1_no_cue_DOWN,NULL,Canvas,center,Print,NA,1648160030136,CRYSTAL,neutral-right.png,3,1699,NULL
1648161139,ea4822a528ee3bb453e635d65811542e,PennController,41,0,trial_1_no_cue_DOWN,NULL,Key,keypress1,Key,NA,Never,CRYSTAL,neutral-right.png,3,1699,NULL
1648161139,ea4822a528ee3bb453e635d65811542e,PennController,41,0,trial_1_no_cue_DOWN,NULL,PennController,44,_Trial_,End,1648160034343,CRYSTAL,neutral-right.png,3,1699,NULL
1648161139,ea4822a528ee3bb453e635d65811542e,PennController,78,0,trial_4_spatial_cue_DOWN,NULL,PennController,81,_Trial_,Start,1648160034345,CRYSTAL,cong-left.png,4,1696,NULL
1648161139,ea4822a528ee3bb453e635d65811542e,PennController,78,0,trial_4_spatial_cue_DOWN,NULL,PennController,81,_Header_,Start,1648160034345,CRYSTAL,cong-left.png,4,1696,NULL
1648161139,ea4822a528ee3bb453e635d65811542e,PennController,78,0,trial_4_spatial_cue_DOWN,NULL,PennController,81,_Header_,End,1648160034345,CRYSTAL,cong-left.png,4,1696,NULL
1648161139,ea4822a528ee3bb453e635d65811542e,PennController,78,0,trial_4_spatial_cue_DOWN,NULL,Canvas,center,Print,NA,1648160035483,CRYSTAL,cong-left.png,4,1696,NULL
1648161139,ea4822a528ee3bb453e635d65811542e,PennController,78,0,trial_4_spatial_cue_DOWN,NULL,Key,keypress1,Key,NA,Never,CRYSTAL,cong-left.png,4,1696,NULL
1648161139,ea4822a528ee3bb453e635d65811542e,PennController,78,0,trial_4_spatial_cue_DOWN,NULL,PennController,81,_Trial_,End,1648160038350,CRYSTAL,cong-left.png,4,1696,NULL
1648161139,ea4822a528ee3bb453e635d65811542e,PennController,78,0,trial_4_spatial_cue_DOWN,NULL,PennController,81,_Trial_,Start,1648160038352,CRYSTAL,cong-left.png,4,1697,NULL
1648161139,ea4822a528ee3bb453e635d65811542e,PennController,78,0,trial_4_spatial_cue_DOWN,NULL,PennController,81,_Header_,Start,1648160038352,CRYSTAL,cong-left.png,4,1697,NULL
1648161139,ea4822a528ee3bb453e635d65811542e,PennController,78,0,trial_4_spatial_cue_DOWN,NULL,PennController,81,_Header_,End,1648160038352,CRYSTAL,cong-left.png,4,1697,NULL
1648161139,ea4822a528ee3bb453e635d65811542e,PennController,78,0,trial_4_spatial_cue_DOWN,NULL,Canvas,center,Print,NA,1648160039493,CRYSTAL,cong-left.png,4,1697,NULL
1648161139,ea4822a528ee3bb453e635d65811542e,PennController,78,0,trial_4_spatial_cue_DOWN,NULL,Key,keypress1,Key,NA,Never,CRYSTAL,cong-left.png,4,1697,NULL
1648161139,ea4822a528ee3bb453e635d65811542e,PennController,78,0,trial_4_spatial_cue_DOWN,NULL,PennController,81,_Trial_,End,1648160042355,CRYSTAL,cong-left.png,4,1697,NULL
1648161139,ea4822a528ee3bb453e635d65811542e,PennController,36,0,trial_1_no_cue_UP,NULL,PennController,39,_Trial_,Start,1648160042358,CRYSTAL,cong-left.png,4,1699,NULL
1648161139,ea4822a528ee3bb453e635d65811542e,PennController,36,0,trial_1_no_cue_UP,NULL,PennController,39,_Header_,Start,1648160042358,CRYSTAL,cong-left.png,4,1699,NULL
1648161139,ea4822a528ee3bb453e635d65811542e,PennController,36,0,trial_1_no_cue_UP,NULL,PennController,39,_Header_,End,1648160042358,CRYSTAL,cong-left.png,4,1699,NULL
1648161139,ea4822a528ee3bb453e635d65811542e,PennController,36,0,trial_1_no_cue_UP,NULL,Canvas,center,Print,NA,1648160043847,CRYSTAL,cong-left.png,4,1699,NULL
1648161139,ea4822a528ee3bb453e635d65811542e,PennController,36,0,trial_1_no_cue_UP,NULL,Key,keypress1,Key,NA,Never,CRYSTAL,cong-left.png,4,1699,NULL
1648161139,ea4822a528ee3bb453e635d65811542e,PennController,36,0,trial_1_no_cue_UP,NULL,PennController,39,_Trial_,End,1648160048051,CRYSTAL,cong-left.png,4,1699,NULL
1648161139,ea4822a528ee3bb453e635d65811542e,PennController,61,0,trial_3_double_cue_UP,NULL,PennController,64,_Trial_,Start,1648160048052,CRYSTAL,incong-left.png,5,1699,NULL
1648161139,ea4822a528ee3bb453e635d65811542e,PennController,61,0,trial_3_double_cue_UP,NULL,PennController,64,_Header_,Start,1648160048052,CRYSTAL,incong-left.png,5,1699,NULL
1648161139,ea4822a528ee3bb453e635d65811542e,PennController,61,0,trial_3_double_cue_UP,NULL,PennController,64,_Header_,End,1648160048052,CRYSTAL,incong-left.png,5,1699,NULL
1648161139,ea4822a528ee3bb453e635d65811542e,PennController,61,0,trial_3_double_cue_UP,NULL,Canvas,center,Print,NA,1648160049871,CRYSTAL,incong-left.png,5,1699,NULL
1648161139,ea4822a528ee3bb453e635d65811542e,PennController,61,0,trial_3_double_cue_UP,NULL,Key,keypress1,Key,NA,Never,CRYSTAL,incong-left.png,5,1699,NULL
1648161139,ea4822a528ee3bb453e635d65811542e,PennController,61,0,trial_3_double_cue_UP,NULL,PennController,64,_Trial_,End,1648160052054,CRYSTAL,incong-left.png,5,1699,NULL
1648161139,ea4822a528ee3bb453e635d65811542e,PennController,51,0,trial_2_center_cue_DOWN,NULL,PennController,54,_Trial_,Start,1648160052057,CRYSTAL,cong-right.png,1,1695,NULL
1648161139,ea4822a528ee3bb453e635d65811542e,PennController,51,0,trial_2_center_cue_DOWN,NULL,PennController,54,_Header_,Start,1648160052057,CRYSTAL,cong-right.png,1,1695,NULL
1648161139,ea4822a528ee3bb453e635d65811542e,PennController,51,0,trial_2_center_cue_DOWN,NULL,PennController,54,_Header_,End,1648160052057,CRYSTAL,cong-right.png,1,1695,NULL
1648161139,ea4822a528ee3bb453e635d65811542e,PennController,51,0,trial_2_center_cue_DOWN,NULL,Canvas,center,Print,NA,1648160053591,CRYSTAL,cong-right.png,1,1695,NULL
1648161139,ea4822a528ee3bb453e635d65811542e,PennController,51,0,trial_2_center_cue_DOWN,NULL,Key,keypress1,Key,NA,Never,CRYSTAL,cong-right.png,1,1695,NULL
1648161139,ea4822a528ee3bb453e635d65811542e,PennController,51,0,trial_2_center_cue_DOWN,NULL,PennController,54,_Trial_,End,1648160056059,CRYSTAL,cong-right.png,1,1695,NULL
1648161139,ea4822a528ee3bb453e635d65811542e,PennController,52,0,trial_2_center_cue_DOWN,NULL,PennController,55,_Trial_,Start,1648160056060,CRYSTAL,incong-right.png,2,1694,NULL
1648161139,ea4822a528ee3bb453e635d65811542e,PennController,52,0,trial_2_center_cue_DOWN,NULL,PennController,55,_Header_,Start,1648160056060,CRYSTAL,incong-right.png,2,1694,NULL
1648161139,ea4822a528ee3bb453e635d65811542e,PennController,52,0,trial_2_center_cue_DOWN,NULL,PennController,55,_Header_,End,1648160056060,CRYSTAL,incong-right.png,2,1694,NULL
1648161139,ea4822a528ee3bb453e635d65811542e,PennController,52,0,trial_2_center_cue_DOWN,NULL,Canvas,center,Print,NA,1648160057889,CRYSTAL,incong-right.png,2,1694,NULL
1648161139,ea4822a528ee3bb453e635d65811542e,PennController,52,0,trial_2_center_cue_DOWN,NULL,Key,keypress1,Key,NA,Never,CRYSTAL,incong-right.png,2,1694,NULL
1648161139,ea4822a528ee3bb453e635d65811542e,PennController,52,0,trial_2_center_cue_DOWN,NULL,PennController,55,_Trial_,End,1648160060062,CRYSTAL,incong-right.png,2,1694,NULL
1648161139,ea4822a528ee3bb453e635d65811542e,PennController,63,0,trial_3_double_cue_DOWN,NULL,PennController,66,_Trial_,Start,1648160060064,CRYSTAL,cong-right.png,1,1697,NULL
1648161139,ea4822a528ee3bb453e635d65811542e,PennController,63,0,trial_3_double_cue_DOWN,NULL,PennController,66,_Header_,Start,1648160060064,CRYSTAL,cong-right.png,1,1697,NULL
1648161139,ea4822a528ee3bb453e635d65811542e,PennController,63,0,trial_3_double_cue_DOWN,NULL,PennController,66,_Header_,End,1648160060065,CRYSTAL,cong-right.png,1,1697,NULL
1648161139,ea4822a528ee3bb453e635d65811542e,PennController,63,0,trial_3_double_cue_DOWN,NULL,Canvas,center,Print,NA,1648160061373,CRYSTAL,cong-right.png,1,1697,NULL
1648161139,ea4822a528ee3bb453e635d65811542e,PennController,63,0,trial_3_double_cue_DOWN,NULL,Key,keypress1,Key,NA,Never,CRYSTAL,cong-right.png,1,1697,NULL
1648161139,ea4822a528ee3bb453e635d65811542e,PennController,63,0,trial_3_double_cue_DOWN,NULL,PennController,66,_Trial_,End,1648160064068,CRYSTAL,cong-right.png,1,1697,NULL
1648161139,ea4822a528ee3bb453e635d65811542e,PennController,59,0,trial_3_double_cue_UP,NULL,PennController,62,_Trial_,Start,1648160064069,CRYSTAL,neutral-right.png,3,1698,NULL
1648161139,ea4822a528ee3bb453e635d65811542e,PennController,59,0,trial_3_double_cue_UP,NULL,PennController,62,_Header_,Start,1648160064069,CRYSTAL,neutral-right.png,3,1698,NULL
1648161139,ea4822a528ee3bb453e635d65811542e,PennController,59,0,trial_3_double_cue_UP,NULL,PennController,62,_Header_,End,1648160064069,CRYSTAL,neutral-right.png,3,1698,NULL
1648161139,ea4822a528ee3bb453e635d65811542e,PennController,59,0,trial_3_double_cue_UP,NULL,Canvas,center,Print,NA,1648160065723,CRYSTAL,neutral-right.png,3,1698,NULL
1648161139,ea4822a528ee3bb453e635d65811542e,PennController,59,0,trial_3_double_cue_UP,NULL,Key,keypress1,Key,NA,Never,CRYSTAL,neutral-right.png,3,1698,NULL
1648161139,ea4822a528ee3bb453e635d65811542e,PennController,59,0,trial_3_double_cue_UP,NULL,PennController,62,_Trial_,End,1648160068074,CRYSTAL,neutral-right.png,3,1698,NULL
1648161139,ea4822a528ee3bb453e635d65811542e,PennController,63,0,trial_3_double_cue_DOWN,NULL,PennController,66,_Trial_,Start,1648160068075,CRYSTAL,cong-right.png,1,1699,NULL
1648161139,ea4822a528ee3bb453e635d65811542e,PennController,63,0,trial_3_double_cue_DOWN,NULL,PennController,66,_Header_,Start,1648160068075,CRYSTAL,cong-right.png,1,1699,NULL
1648161139,ea4822a528ee3bb453e635d65811542e,PennController,63,0,trial_3_double_cue_DOWN,NULL,PennController,66,_Header_,End,1648160068075,CRYSTAL,cong-right.png,1,1699,NULL
1648161139,ea4822a528ee3bb453e635d65811542e,PennController,63,0,trial_3_double_cue_DOWN,NULL,Canvas,center,Print,NA,1648160069382,CRYSTAL,cong-right.png,1,1699,NULL
1648161139,ea4822a528ee3bb453e635d65811542e,PennController,63,0,trial_3_double_cue_DOWN,NULL,Key,keypress1,Key,NA,Never,CRYSTAL,cong-right.png,1,1699,NULL
1648161139,ea4822a528ee3bb453e635d65811542e,PennController,63,0,trial_3_double_cue_DOWN,NULL,PennController,66,_Trial_,End,1648160072078,CRYSTAL,cong-right.png,1,1699,NULL
1648161139,ea4822a528ee3bb453e635d65811542e,PennController,74,0,trial_4_spatial_cue_UP,NULL,PennController,77,_Trial_,Start,1648160072080,CRYSTAL,neutral-left.png,6,1700,NULL
1648161139,ea4822a528ee3bb453e635d65811542e,PennController,74,0,trial_4_spatial_cue_UP,NULL,PennController,77,_Header_,Start,1648160072080,CRYSTAL,neutral-left.png,6,1700,NULL
1648161139,ea4822a528ee3bb453e635d65811542e,PennController,74,0,trial_4_spatial_cue_UP,NULL,PennController,77,_Header_,End,1648160072080,CRYSTAL,neutral-left.png,6,1700,NULL
1648161139,ea4822a528ee3bb453e635d65811542e,PennController,74,0,trial_4_spatial_cue_UP,NULL,Canvas,center,Print,NA,1648160073958,CRYSTAL,neutral-left.png,6,1700,NULL
1648161139,ea4822a528ee3bb453e635d65811542e,PennController,74,0,trial_4_spatial_cue_UP,NULL,Key,keypress1,Key,NA,Never,CRYSTAL,neutral-left.png,6,1700,NULL
1648161139,ea4822a528ee3bb453e635d65811542e,PennController,74,0,trial_4_spatial_cue_UP,NULL,PennController,77,_Trial_,End,1648160076082,CRYSTAL,neutral-left.png,6,1700,NULL
1648161139,ea4822a528ee3bb453e635d65811542e,PennController,44,0,trial_1_no_cue_DOWN,NULL,PennController,47,_Trial_,Start,1648160076084,CRYSTAL,neutral-left.png,6,1697,NULL
1648161139,ea4822a528ee3bb453e635d65811542e,PennController,44,0,trial_1_no_cue_DOWN,NULL,PennController,47,_Header_,Start,1648160076084,CRYSTAL,neutral-left.png,6,1697,NULL
1648161139,ea4822a528ee3bb453e635d65811542e,PennController,44,0,trial_1_no_cue_DOWN,NULL,PennController,47,_Header_,End,1648160076084,CRYSTAL,neutral-left.png,6,1697,NULL
1648161139,ea4822a528ee3bb453e635d65811542e,PennController,44,0,trial_1_no_cue_DOWN,NULL,Canvas,center,Print,NA,1648160077268,CRYSTAL,neutral-left.png,6,1697,NULL
1648161139,ea4822a528ee3bb453e635d65811542e,PennController,44,0,trial_1_no_cue_DOWN,NULL,Key,keypress1,Key,NA,Never,CRYSTAL,neutral-left.png,6,1697,NULL
1648161139,ea4822a528ee3bb453e635d65811542e,PennController,44,0,trial_1_no_cue_DOWN,NULL,PennController,47,_Trial_,End,1648160081473,CRYSTAL,neutral-left.png,6,1697,NULL
1648161139,ea4822a528ee3bb453e635d65811542e,PennController,45,0,trial_2_center_cue_UP,NULL,PennController,48,_Trial_,Start,1648160081475,CRYSTAL,cong-right.png,1,1698,NULL
1648161139,ea4822a528ee3bb453e635d65811542e,PennController,45,0,trial_2_center_cue_UP,NULL,PennController,48,_Header_,Start,1648160081475,CRYSTAL,cong-right.png,1,1698,NULL
1648161139,ea4822a528ee3bb453e635d65811542e,PennController,45,0,trial_2_center_cue_UP,NULL,PennController,48,_Header_,End,1648160081475,CRYSTAL,cong-right.png,1,1698,NULL
1648161139,ea4822a528ee3bb453e635d65811542e,PennController,45,0,trial_2_center_cue_UP,NULL,Canvas,center,Print,NA,1648160082507,CRYSTAL,cong-right.png,1,1698,NULL
1648161139,ea4822a528ee3bb453e635d65811542e,PennController,45,0,trial_2_center_cue_UP,NULL,Key,keypress1,Key,NA,Never,CRYSTAL,cong-right.png,1,1698,NULL
1648161139,ea4822a528ee3bb453e635d65811542e,PennController,45,0,trial_2_center_cue_UP,NULL,PennController,48,_Trial_,End,1648160085480,CRYSTAL,cong-right.png,1,1698,NULL
1648161139,ea4822a528ee3bb453e635d65811542e,PennController,48,0,trial_2_center_cue_UP,NULL,PennController,51,_Trial_,Start,1648160085482,CRYSTAL,cong-left.png,4,1700,NULL
1648161139,ea4822a528ee3bb453e635d65811542e,PennController,48,0,trial_2_center_cue_UP,NULL,PennController,51,_Header_,Start,1648160085482,CRYSTAL,cong-left.png,4,1700,NULL
1648161139,ea4822a528ee3bb453e635d65811542e,PennController,48,0,trial_2_center_cue_UP,NULL,PennController,51,_Header_,End,1648160085482,CRYSTAL,cong-left.png,4,1700,NULL
1648161139,ea4822a528ee3bb453e635d65811542e,PennController,48,0,trial_2_center_cue_UP,NULL,Canvas,center,Print,NA,1648160086948,CRYSTAL,cong-left.png,4,1700,NULL
1648161139,ea4822a528ee3bb453e635d65811542e,PennController,48,0,trial_2_center_cue_UP,NULL,Key,keypress1,Key,NA,Never,CRYSTAL,cong-left.png,4,1700,NULL
1648161139,ea4822a528ee3bb453e635d65811542e,PennController,48,0,trial_2_center_cue_UP,NULL,PennController,51,_Trial_,End,1648160089485,CRYSTAL,cong-left.png,4,1700,NULL
1648161139,ea4822a528ee3bb453e635d65811542e,PennController,37,0,trial_1_no_cue_UP,NULL,PennController,40,_Trial_,Start,1648160089488,CRYSTAL,incong-left.png,5,1698,NULL
1648161139,ea4822a528ee3bb453e635d65811542e,PennController,37,0,trial_1_no_cue_UP,NULL,PennController,40,_Header_,Start,1648160089488,CRYSTAL,incong-left.png,5,1698,NULL
1648161139,ea4822a528ee3bb453e635d65811542e,PennController,37,0,trial_1_no_cue_UP,NULL,PennController,40,_Header_,End,1648160089488,CRYSTAL,incong-left.png,5,1698,NULL
1648161139,ea4822a528ee3bb453e635d65811542e,PennController,37,0,trial_1_no_cue_UP,NULL,Canvas,center,Print,NA,1648160091396,CRYSTAL,incong-left.png,5,1698,NULL
1648161139,ea4822a528ee3bb453e635d65811542e,PennController,37,0,trial_1_no_cue_UP,NULL,Key,keypress1,Key,NA,Never,CRYSTAL,incong-left.png,5,1698,NULL
1648161139,ea4822a528ee3bb453e635d65811542e,PennController,37,0,trial_1_no_cue_UP,NULL,PennController,40,_Trial_,End,1648160095599,CRYSTAL,incong-left.png,5,1698,NULL
1648161139,ea4822a528ee3bb453e635d65811542e,PennController,69,0,trial_4_spatial_cue_UP,NULL,PennController,72,_Trial_,Start,1648160095601,CRYSTAL,cong-right.png,1,1696,NULL
1648161139,ea4822a528ee3bb453e635d65811542e,PennController,69,0,trial_4_spatial_cue_UP,NULL,PennController,72,_Header_,Start,1648160095601,CRYSTAL,cong-right.png,1,1696,NULL
1648161139,ea4822a528ee3bb453e635d65811542e,PennController,69,0,trial_4_spatial_cue_UP,NULL,PennController,72,_Header_,End,1648160095601,CRYSTAL,cong-right.png,1,1696,NULL
1648161139,ea4822a528ee3bb453e635d65811542e,PennController,69,0,trial_4_spatial_cue_UP,NULL,Canvas,center,Print,NA,1648160097193,CRYSTAL,cong-right.png,1,1696,NULL
1648161139,ea4822a528ee3bb453e635d65811542e,PennController,69,0,trial_4_spatial_cue_UP,NULL,Key,keypress1,Key,NA,Never,CRYSTAL,cong-right.png,1,1696,NULL
1648161139,ea4822a528ee3bb453e635d65811542e,PennController,69,0,trial_4_spatial_cue_UP,NULL,PennController,72,_Trial_,End,1648160099602,CRYSTAL,cong-right.png,1,1696,NULL
1648161139,ea4822a528ee3bb453e635d65811542e,PennController,43,0,trial_1_no_cue_DOWN,NULL,PennController,46,_Trial_,Start,1648160099605,CRYSTAL,incong-left.png,5,1697,NULL
1648161139,ea4822a528ee3bb453e635d65811542e,PennController,43,0,trial_1_no_cue_DOWN,NULL,PennController,46,_Header_,Start,1648160099605,CRYSTAL,incong-left.png,5,1697,NULL
1648161139,ea4822a528ee3bb453e635d65811542e,PennController,43,0,trial_1_no_cue_DOWN,NULL,PennController,46,_Header_,End,1648160099605,CRYSTAL,incong-left.png,5,1697,NULL
1648161139,ea4822a528ee3bb453e635d65811542e,PennController,43,0,trial_1_no_cue_DOWN,NULL,Canvas,center,Print,NA,1648160100922,CRYSTAL,incong-left.png,5,1697,NULL
1648161139,ea4822a528ee3bb453e635d65811542e,PennController,43,0,trial_1_no_cue_DOWN,NULL,Key,keypress1,Key,NA,Never,CRYSTAL,incong-left.png,5,1697,NULL
1648161139,ea4822a528ee3bb453e635d65811542e,PennController,43,0,trial_1_no_cue_DOWN,NULL,PennController,46,_Trial_,End,1648160105126,CRYSTAL,incong-left.png,5,1697,NULL
1648161139,ea4822a528ee3bb453e635d65811542e,PennController,75,0,trial_4_spatial_cue_DOWN,NULL,PennController,78,_Trial_,Start,1648160105128,CRYSTAL,cong-right.png,1,1697,NULL
1648161139,ea4822a528ee3bb453e635d65811542e,PennController,75,0,trial_4_spatial_cue_DOWN,NULL,PennController,78,_Header_,Start,1648160105128,CRYSTAL,cong-right.png,1,1697,NULL
1648161139,ea4822a528ee3bb453e635d65811542e,PennController,75,0,trial_4_spatial_cue_DOWN,NULL,PennController,78,_Header_,End,1648160105128,CRYSTAL,cong-right.png,1,1697,NULL
1648161139,ea4822a528ee3bb453e635d65811542e,PennController,75,0,trial_4_spatial_cue_DOWN,NULL,Canvas,center,Print,NA,1648160106742,CRYSTAL,cong-right.png,1,1697,NULL
1648161139,ea4822a528ee3bb453e635d65811542e,PennController,75,0,trial_4_spatial_cue_DOWN,NULL,Key,keypress1,Key,NA,Never,CRYSTAL,cong-right.png,1,1697,NULL
1648161139,ea4822a528ee3bb453e635d65811542e,PennController,75,0,trial_4_spatial_cue_DOWN,NULL,PennController,78,_Trial_,End,1648160109131,CRYSTAL,cong-right.png,1,1697,NULL
1648161139,ea4822a528ee3bb453e635d65811542e,PennController,80,0,trial_4_spatial_cue_DOWN,NULL,PennController,83,_Trial_,Start,1648160109133,CRYSTAL,neutral-left.png,6,1700,NULL
1648161139,ea4822a528ee3bb453e635d65811542e,PennController,80,0,trial_4_spatial_cue_DOWN,NULL,PennController,83,_Header_,Start,1648160109133,CRYSTAL,neutral-left.png,6,1700,NULL
1648161139,ea4822a528ee3bb453e635d65811542e,PennController,80,0,trial_4_spatial_cue_DOWN,NULL,PennController,83,_Header_,End,1648160109133,CRYSTAL,neutral-left.png,6,1700,NULL
1648161139,ea4822a528ee3bb453e635d65811542e,PennController,80,0,trial_4_spatial_cue_DOWN,NULL,Canvas,center,Print,NA,1648160110196,CRYSTAL,neutral-left.png,6,1700,NULL
1648161139,ea4822a528ee3bb453e635d65811542e,PennController,80,0,trial_4_spatial_cue_DOWN,NULL,Key,keypress1,Key,NA,Never,CRYSTAL,neutral-left.png,6,1700,NULL
1648161139,ea4822a528ee3bb453e635d65811542e,PennController,80,0,trial_4_spatial_cue_DOWN,NULL,PennController,83,_Trial_,End,1648160113135,CRYSTAL,neutral-left.png,6,1700,NULL
1648161139,ea4822a528ee3bb453e635d65811542e,PennController,38,0,trial_1_no_cue_UP,NULL,PennController,41,_Trial_,Start,1648160113136,CRYSTAL,neutral-left.png,6,1697,NULL
1648161139,ea4822a528ee3bb453e635d65811542e,PennController,38,0,trial_1_no_cue_UP,NULL,PennController,41,_Header_,Start,1648160113136,CRYSTAL,neutral-left.png,6,1697,NULL
1648161139,ea4822a528ee3bb453e635d65811542e,PennController,38,0,trial_1_no_cue_UP,NULL,PennController,41,_Header_,End,1648160113136,CRYSTAL,neutral-left.png,6,1697,NULL
1648161139,ea4822a528ee3bb453e635d65811542e,PennController,38,0,trial_1_no_cue_UP,NULL,Canvas,center,Print,NA,1648160114489,CRYSTAL,neutral-left.png,6,1697,NULL
1648161139,ea4822a528ee3bb453e635d65811542e,PennController,38,0,trial_1_no_cue_UP,NULL,Key,keypress1,Key,NA,Never,CRYSTAL,neutral-left.png,6,1697,NULL
1648161139,ea4822a528ee3bb453e635d65811542e,PennController,38,0,trial_1_no_cue_UP,NULL,PennController,41,_Trial_,End,1648160118693,CRYSTAL,neutral-left.png,6,1697,NULL
1648161139,ea4822a528ee3bb453e635d65811542e,PennController,57,0,trial_3_double_cue_UP,NULL,PennController,60,_Trial_,Start,1648160118695,CRYSTAL,cong-right.png,1,1697,NULL
1648161139,ea4822a528ee3bb453e635d65811542e,PennController,57,0,trial_3_double_cue_UP,NULL,PennController,60,_Header_,Start,1648160118695,CRYSTAL,cong-right.png,1,1697,NULL
1648161139,ea4822a528ee3bb453e635d65811542e,PennController,57,0,trial_3_double_cue_UP,NULL,PennController,60,_Header_,End,1648160118695,CRYSTAL,cong-right.png,1,1697,NULL
1648161139,ea4822a528ee3bb453e635d65811542e,PennController,57,0,trial_3_double_cue_UP,NULL,Canvas,center,Print,NA,1648160120508,CRYSTAL,cong-right.png,1,1697,NULL
1648161139,ea4822a528ee3bb453e635d65811542e,PennController,57,0,trial_3_double_cue_UP,NULL,Key,keypress1,Key,NA,Never,CRYSTAL,cong-right.png,1,1697,NULL
1648161139,ea4822a528ee3bb453e635d65811542e,PennController,57,0,trial_3_double_cue_UP,NULL,PennController,60,_Trial_,End,1648160122700,CRYSTAL,cong-right.png,1,1697,NULL
1648161139,ea4822a528ee3bb453e635d65811542e,PennController,54,0,trial_2_center_cue_DOWN,NULL,PennController,57,_Trial_,Start,1648160122702,CRYSTAL,cong-left.png,4,1696,NULL
1648161139,ea4822a528ee3bb453e635d65811542e,PennController,54,0,trial_2_center_cue_DOWN,NULL,PennController,57,_Header_,Start,1648160122702,CRYSTAL,cong-left.png,4,1696,NULL
1648161139,ea4822a528ee3bb453e635d65811542e,PennController,54,0,trial_2_center_cue_DOWN,NULL,PennController,57,_Header_,End,1648160122702,CRYSTAL,cong-left.png,4,1696,NULL
1648161139,ea4822a528ee3bb453e635d65811542e,PennController,54,0,trial_2_center_cue_DOWN,NULL,Canvas,center,Print,NA,1648160123643,CRYSTAL,cong-left.png,4,1696,NULL
1648161139,ea4822a528ee3bb453e635d65811542e,PennController,54,0,trial_2_center_cue_DOWN,NULL,Key,keypress1,Key,NA,Never,CRYSTAL,cong-left.png,4,1696,NULL
1648161139,ea4822a528ee3bb453e635d65811542e,PennController,54,0,trial_2_center_cue_DOWN,NULL,PennController,57,_Trial_,End,1648160126705,CRYSTAL,cong-left.png,4,1696,NULL
1648161139,ea4822a528ee3bb453e635d65811542e,PennController,55,0,trial_2_center_cue_DOWN,NULL,PennController,58,_Trial_,Start,1648160126708,CRYSTAL,incong-left.png,5,1696,NULL
1648161139,ea4822a528ee3bb453e635d65811542e,PennController,55,0,trial_2_center_cue_DOWN,NULL,PennController,58,_Header_,Start,1648160126708,CRYSTAL,incong-left.png,5,1696,NULL
1648161139,ea4822a528ee3bb453e635d65811542e,PennController,55,0,trial_2_center_cue_DOWN,NULL,PennController,58,_Header_,End,1648160126708,CRYSTAL,incong-left.png,5,1696,NULL
1648161139,ea4822a528ee3bb453e635d65811542e,PennController,55,0,trial_2_center_cue_DOWN,NULL,Canvas,center,Print,NA,1648160127811,CRYSTAL,incong-left.png,5,1696,NULL
1648161139,ea4822a528ee3bb453e635d65811542e,PennController,55,0,trial_2_center_cue_DOWN,NULL,Key,keypress1,Key,NA,Never,CRYSTAL,incong-left.png,5,1696,NULL
1648161139,ea4822a528ee3bb453e635d65811542e,PennController,55,0,trial_2_center_cue_DOWN,NULL,PennController,58,_Trial_,End,1648160130713,CRYSTAL,incong-left.png,5,1696,NULL
1648161139,ea4822a528ee3bb453e635d65811542e,PennController,65,0,trial_3_double_cue_DOWN,NULL,PennController,68,_Trial_,Start,1648160130716,CRYSTAL,neutral-right.png,3,1698,NULL
1648161139,ea4822a528ee3bb453e635d65811542e,PennController,65,0,trial_3_double_cue_DOWN,NULL,PennController,68,_Header_,Start,1648160130716,CRYSTAL,neutral-right.png,3,1698,NULL
1648161139,ea4822a528ee3bb453e635d65811542e,PennController,65,0,trial_3_double_cue_DOWN,NULL,PennController,68,_Header_,End,1648160130716,CRYSTAL,neutral-right.png,3,1698,NULL
1648161139,ea4822a528ee3bb453e635d65811542e,PennController,65,0,trial_3_double_cue_DOWN,NULL,Canvas,center,Print,NA,1648160131846,CRYSTAL,neutral-right.png,3,1698,NULL
1648161139,ea4822a528ee3bb453e635d65811542e,PennController,65,0,trial_3_double_cue_DOWN,NULL,Key,keypress1,Key,NA,Never,CRYSTAL,neutral-right.png,3,1698,NULL
1648161139,ea4822a528ee3bb453e635d65811542e,PennController,65,0,trial_3_double_cue_DOWN,NULL,PennController,68,_Trial_,End,1648160134720,CRYSTAL,neutral-right.png,3,1698,NULL
1648161139,ea4822a528ee3bb453e635d65811542e,PennController,61,0,trial_3_double_cue_UP,NULL,PennController,64,_Trial_,Start,1648160134722,CRYSTAL,incong-left.png,5,1699,NULL
1648161139,ea4822a528ee3bb453e635d65811542e,PennController,61,0,trial_3_double_cue_UP,NULL,PennController,64,_Header_,Start,1648160134722,CRYSTAL,incong-left.png,5,1699,NULL
1648161139,ea4822a528ee3bb453e635d65811542e,PennController,61,0,trial_3_double_cue_UP,NULL,PennController,64,_Header_,End,1648160134722,CRYSTAL,incong-left.png,5,1699,NULL
1648161139,ea4822a528ee3bb453e635d65811542e,PennController,61,0,trial_3_double_cue_UP,NULL,Canvas,center,Print,NA,1648160136535,CRYSTAL,incong-left.png,5,1699,NULL
1648161139,ea4822a528ee3bb453e635d65811542e,PennController,61,0,trial_3_double_cue_UP,NULL,Key,keypress1,Key,NA,Never,CRYSTAL,incong-left.png,5,1699,NULL
1648161139,ea4822a528ee3bb453e635d65811542e,PennController,61,0,trial_3_double_cue_UP,NULL,PennController,64,_Trial_,End,1648160138725,CRYSTAL,incong-left.png,5,1699,NULL
1648161139,ea4822a528ee3bb453e635d65811542e,PennController,64,0,trial_3_double_cue_DOWN,NULL,PennController,67,_Trial_,Start,1648160138727,CRYSTAL,incong-right.png,2,1698,NULL
1648161139,ea4822a528ee3bb453e635d65811542e,PennController,64,0,trial_3_double_cue_DOWN,NULL,PennController,67,_Header_,Start,1648160138727,CRYSTAL,incong-right.png,2,1698,NULL
1648161139,ea4822a528ee3bb453e635d65811542e,PennController,64,0,trial_3_double_cue_DOWN,NULL,PennController,67,_Header_,End,1648160138727,CRYSTAL,incong-right.png,2,1698,NULL
1648161139,ea4822a528ee3bb453e635d65811542e,PennController,64,0,trial_3_double_cue_DOWN,NULL,Canvas,center,Print,NA,1648160140058,CRYSTAL,incong-right.png,2,1698,NULL
1648161139,ea4822a528ee3bb453e635d65811542e,PennController,64,0,trial_3_double_cue_DOWN,NULL,Key,keypress1,Key,NA,Never,CRYSTAL,incong-right.png,2,1698,NULL
1648161139,ea4822a528ee3bb453e635d65811542e,PennController,64,0,trial_3_double_cue_DOWN,NULL,PennController,67,_Trial_,End,1648160142729,CRYSTAL,incong-right.png,2,1698,NULL
1648161139,ea4822a528ee3bb453e635d65811542e,PennController,72,0,trial_4_spatial_cue_UP,NULL,PennController,75,_Trial_,Start,1648160142731,CRYSTAL,cong-left.png,4,1697,NULL
1648161139,ea4822a528ee3bb453e635d65811542e,PennController,72,0,trial_4_spatial_cue_UP,NULL,PennController,75,_Header_,Start,1648160142731,CRYSTAL,cong-left.png,4,1697,NULL
1648161139,ea4822a528ee3bb453e635d65811542e,PennController,72,0,trial_4_spatial_cue_UP,NULL,PennController,75,_Header_,End,1648160142731,CRYSTAL,cong-left.png,4,1697,NULL
1648161139,ea4822a528ee3bb453e635d65811542e,PennController,72,0,trial_4_spatial_cue_UP,NULL,Canvas,center,Print,NA,1648160144556,CRYSTAL,cong-left.png,4,1697,NULL
1648161139,ea4822a528ee3bb453e635d65811542e,PennController,72,0,trial_4_spatial_cue_UP,NULL,Key,keypress1,Key,NA,Never,CRYSTAL,cong-left.png,4,1697,NULL
1648161139,ea4822a528ee3bb453e635d65811542e,PennController,72,0,trial_4_spatial_cue_UP,NULL,PennController,75,_Trial_,End,1648160146733,CRYSTAL,cong-left.png,4,1697,NULL
1648161139,ea4822a528ee3bb453e635d65811542e,PennController,42,0,trial_1_no_cue_DOWN,NULL,PennController,45,_Trial_,Start,1648160146734,CRYSTAL,cong-left.png,4,1699,NULL
1648161139,ea4822a528ee3bb453e635d65811542e,PennController,42,0,trial_1_no_cue_DOWN,NULL,PennController,45,_Header_,Start,1648160146734,CRYSTAL,cong-left.png,4,1699,NULL
1648161139,ea4822a528ee3bb453e635d65811542e,PennController,42,0,trial_1_no_cue_DOWN,NULL,PennController,45,_Header_,End,1648160146735,CRYSTAL,cong-left.png,4,1699,NULL
1648161139,ea4822a528ee3bb453e635d65811542e,PennController,42,0,trial_1_no_cue_DOWN,NULL,Canvas,center,Print,NA,1648160148705,CRYSTAL,cong-left.png,4,1699,NULL
1648161139,ea4822a528ee3bb453e635d65811542e,PennController,42,0,trial_1_no_cue_DOWN,NULL,Key,keypress1,Key,NA,Never,CRYSTAL,cong-left.png,4,1699,NULL
1648161139,ea4822a528ee3bb453e635d65811542e,PennController,42,0,trial_1_no_cue_DOWN,NULL,PennController,45,_Trial_,End,1648160152910,CRYSTAL,cong-left.png,4,1699,NULL
1648161139,ea4822a528ee3bb453e635d65811542e,PennController,47,0,trial_2_center_cue_UP,NULL,PennController,50,_Trial_,Start,1648160152912,CRYSTAL,neutral-right.png,3,1698,NULL
1648161139,ea4822a528ee3bb453e635d65811542e,PennController,47,0,trial_2_center_cue_UP,NULL,PennController,50,_Header_,Start,1648160152912,CRYSTAL,neutral-right.png,3,1698,NULL
1648161139,ea4822a528ee3bb453e635d65811542e,PennController,47,0,trial_2_center_cue_UP,NULL,PennController,50,_Header_,End,1648160152912,CRYSTAL,neutral-right.png,3,1698,NULL
1648161139,ea4822a528ee3bb453e635d65811542e,PennController,47,0,trial_2_center_cue_UP,NULL,Canvas,center,Print,NA,1648160154882,CRYSTAL,neutral-right.png,3,1698,NULL
1648161139,ea4822a528ee3bb453e635d65811542e,PennController,47,0,trial_2_center_cue_UP,NULL,Key,keypress1,Key,NA,Never,CRYSTAL,neutral-right.png,3,1698,NULL
1648161139,ea4822a528ee3bb453e635d65811542e,PennController,47,0,trial_2_center_cue_UP,NULL,PennController,50,_Trial_,End,1648160156915,CRYSTAL,neutral-right.png,3,1698,NULL
1648161139,ea4822a528ee3bb453e635d65811542e,PennController,50,0,trial_2_center_cue_UP,NULL,PennController,53,_Trial_,Start,1648160156915,CRYSTAL,neutral-left.png,6,1699,NULL
1648161139,ea4822a528ee3bb453e635d65811542e,PennController,50,0,trial_2_center_cue_UP,NULL,PennController,53,_Header_,Start,1648160156915,CRYSTAL,neutral-left.png,6,1699,NULL
1648161139,ea4822a528ee3bb453e635d65811542e,PennController,50,0,trial_2_center_cue_UP,NULL,PennController,53,_Header_,End,1648160156915,CRYSTAL,neutral-left.png,6,1699,NULL
1648161139,ea4822a528ee3bb453e635d65811542e,PennController,50,0,trial_2_center_cue_UP,NULL,Canvas,center,Print,NA,1648160158648,CRYSTAL,neutral-left.png,6,1699,NULL
1648161139,ea4822a528ee3bb453e635d65811542e,PennController,50,0,trial_2_center_cue_UP,NULL,Key,keypress1,Key,NA,Never,CRYSTAL,neutral-left.png,6,1699,NULL
1648161139,ea4822a528ee3bb453e635d65811542e,PennController,50,0,trial_2_center_cue_UP,NULL,PennController,53,_Trial_,End,1648160160918,CRYSTAL,neutral-left.png,6,1699,NULL
1648161139,ea4822a528ee3bb453e635d65811542e,PennController,36,0,trial_1_no_cue_UP,NULL,PennController,39,_Trial_,Start,1648160160920,CRYSTAL,cong-left.png,4,1700,NULL
1648161139,ea4822a528ee3bb453e635d65811542e,PennController,36,0,trial_1_no_cue_UP,NULL,PennController,39,_Header_,Start,1648160160920,CRYSTAL,cong-left.png,4,1700,NULL
1648161139,ea4822a528ee3bb453e635d65811542e,PennController,36,0,trial_1_no_cue_UP,NULL,PennController,39,_Header_,End,1648160160920,CRYSTAL,cong-left.png,4,1700,NULL
1648161139,ea4822a528ee3bb453e635d65811542e,PennController,36,0,trial_1_no_cue_UP,NULL,Canvas,center,Print,NA,1648160162403,CRYSTAL,cong-left.png,4,1700,NULL
1648161139,ea4822a528ee3bb453e635d65811542e,PennController,36,0,trial_1_no_cue_UP,NULL,Key,keypress1,Key,NA,Never,CRYSTAL,cong-left.png,4,1700,NULL
1648161139,ea4822a528ee3bb453e635d65811542e,PennController,36,0,trial_1_no_cue_UP,NULL,PennController,39,_Trial_,End,1648160166609,CRYSTAL,cong-left.png,4,1700,NULL
1648161139,ea4822a528ee3bb453e635d65811542e,PennController,71,0,trial_4_spatial_cue_UP,NULL,PennController,74,_Trial_,Start,1648160166610,CRYSTAL,neutral-right.png,3,1697,NULL
1648161139,ea4822a528ee3bb453e635d65811542e,PennController,71,0,trial_4_spatial_cue_UP,NULL,PennController,74,_Header_,Start,1648160166610,CRYSTAL,neutral-right.png,3,1697,NULL
1648161139,ea4822a528ee3bb453e635d65811542e,PennController,71,0,trial_4_spatial_cue_UP,NULL,PennController,74,_Header_,End,1648160166610,CRYSTAL,neutral-right.png,3,1697,NULL
1648161139,ea4822a528ee3bb453e635d65811542e,PennController,71,0,trial_4_spatial_cue_UP,NULL,Canvas,center,Print,NA,1648160167940,CRYSTAL,neutral-right.png,3,1697,NULL
1648161139,ea4822a528ee3bb453e635d65811542e,PennController,71,0,trial_4_spatial_cue_UP,NULL,Key,keypress1,Key,NA,Never,CRYSTAL,neutral-right.png,3,1697,NULL
1648161139,ea4822a528ee3bb453e635d65811542e,PennController,71,0,trial_4_spatial_cue_UP,NULL,PennController,74,_Trial_,End,1648160170615,CRYSTAL,neutral-right.png,3,1697,NULL
1648161139,ea4822a528ee3bb453e635d65811542e,PennController,39,0,trial_1_no_cue_DOWN,NULL,PennController,42,_Trial_,Start,1648160170617,CRYSTAL,cong-right.png,1,1698,NULL
1648161139,ea4822a528ee3bb453e635d65811542e,PennController,39,0,trial_1_no_cue_DOWN,NULL,PennController,42,_Header_,Start,1648160170617,CRYSTAL,cong-right.png,1,1698,NULL
1648161139,ea4822a528ee3bb453e635d65811542e,PennController,39,0,trial_1_no_cue_DOWN,NULL,PennController,42,_Header_,End,1648160170617,CRYSTAL,cong-right.png,1,1698,NULL
1648161139,ea4822a528ee3bb453e635d65811542e,PennController,39,0,trial_1_no_cue_DOWN,NULL,Canvas,center,Print,NA,1648160172606,CRYSTAL,cong-right.png,1,1698,NULL
1648161139,ea4822a528ee3bb453e635d65811542e,PennController,39,0,trial_1_no_cue_DOWN,NULL,Key,keypress1,Key,NA,Never,CRYSTAL,cong-right.png,1,1698,NULL
1648161139,ea4822a528ee3bb453e635d65811542e,PennController,39,0,trial_1_no_cue_DOWN,NULL,PennController,42,_Trial_,End,1648160176811,CRYSTAL,cong-right.png,1,1698,NULL
1648161139,ea4822a528ee3bb453e635d65811542e,PennController,80,0,trial_4_spatial_cue_DOWN,NULL,PennController,83,_Trial_,Start,1648160176813,CRYSTAL,neutral-left.png,6,1698,NULL
1648161139,ea4822a528ee3bb453e635d65811542e,PennController,80,0,trial_4_spatial_cue_DOWN,NULL,PennController,83,_Header_,Start,1648160176813,CRYSTAL,neutral-left.png,6,1698,NULL
1648161139,ea4822a528ee3bb453e635d65811542e,PennController,80,0,trial_4_spatial_cue_DOWN,NULL,PennController,83,_Header_,End,1648160176813,CRYSTAL,neutral-left.png,6,1698,NULL
1648161139,ea4822a528ee3bb453e635d65811542e,PennController,80,0,trial_4_spatial_cue_DOWN,NULL,Canvas,center,Print,NA,1648160177879,CRYSTAL,neutral-left.png,6,1698,NULL
1648161139,ea4822a528ee3bb453e635d65811542e,PennController,80,0,trial_4_spatial_cue_DOWN,NULL,Key,keypress1,Key,NA,Never,CRYSTAL,neutral-left.png,6,1698,NULL
