#
# Results on Fri, 03 Dec 2021 11:53:07 GMT
# USER AGENT: Mozilla/5.0 (Windows NT 10.0; Win64; x64) AppleWebKit/537.36 (KHTML, like Gecko) Chrome/96.0.4664.45 Safari/537.36
# Design number was non-random = 0
#
# Columns below this comment are as follows:
# 1. Results reception time.
# 2. MD5 hash of participant's IP address.
# 3. Controller name.
# 4. Order number of item.
# 5. Inner element number.
# 6. Label.
# 7. Latin Square Group.
# 8. PennElementType.
# 9. PennElementName.
# 10. Parameter.
# 11. Value.
# 12. EventTime.
# 13. id.
# 14. Comments.
1638532387,4482cad4ed88b0912e8c24f9e8eba85c,PennController,0,0,instructions_A,NULL,PennController,0,_Trial_,Start,1638531377005,CURY_2,NULL
1638532387,4482cad4ed88b0912e8c24f9e8eba85c,PennController,0,0,instructions_A,NULL,PennController,0,_Header_,Start,1638531377005,CURY_2,NULL
1638532387,4482cad4ed88b0912e8c24f9e8eba85c,PennController,0,0,instructions_A,NULL,PennController,0,_Header_,End,1638531377005,CURY_2,NULL
1638532387,4482cad4ed88b0912e8c24f9e8eba85c,PennController,0,0,instructions_A,NULL,PennController,0,_Trial_,End,1638531384225,CURY_2,NULL
1638532387,4482cad4ed88b0912e8c24f9e8eba85c,PennController,1,0,instructions_B,NULL,PennController,1,_Trial_,Start,1638531384229,CURY_2,NULL
1638532387,4482cad4ed88b0912e8c24f9e8eba85c,PennController,1,0,instructions_B,NULL,PennController,1,_Header_,Start,1638531384229,CURY_2,NULL
1638532387,4482cad4ed88b0912e8c24f9e8eba85c,PennController,1,0,instructions_B,NULL,PennController,1,_Header_,End,1638531384229,CURY_2,NULL
1638532387,4482cad4ed88b0912e8c24f9e8eba85c,PennController,1,0,instructions_B,NULL,PennController,1,_Trial_,End,1638531384962,CURY_2,NULL
1638532387,4482cad4ed88b0912e8c24f9e8eba85c,PennController,2,0,instructions_C,NULL,PennController,2,_Trial_,Start,1638531384963,CURY_2,NULL
1638532387,4482cad4ed88b0912e8c24f9e8eba85c,PennController,2,0,instructions_C,NULL,PennController,2,_Header_,Start,1638531384963,CURY_2,NULL
1638532387,4482cad4ed88b0912e8c24f9e8eba85c,PennController,2,0,instructions_C,NULL,PennController,2,_Header_,End,1638531384963,CURY_2,NULL
1638532387,4482cad4ed88b0912e8c24f9e8eba85c,PennController,2,0,instructions_C,NULL,PennController,2,_Trial_,End,1638531385604,CURY_2,NULL
1638532387,4482cad4ed88b0912e8c24f9e8eba85c,PennController,3,0,instructions_D,NULL,PennController,3,_Trial_,Start,1638531385605,CURY_2,NULL
1638532387,4482cad4ed88b0912e8c24f9e8eba85c,PennController,3,0,instructions_D,NULL,PennController,3,_Header_,Start,1638531385605,CURY_2,NULL
1638532387,4482cad4ed88b0912e8c24f9e8eba85c,PennController,3,0,instructions_D,NULL,PennController,3,_Header_,End,1638531385605,CURY_2,NULL
1638532387,4482cad4ed88b0912e8c24f9e8eba85c,PennController,3,0,instructions_D,NULL,PennController,3,_Trial_,End,1638531386048,CURY_2,NULL
1638532387,4482cad4ed88b0912e8c24f9e8eba85c,PennController,16,0,p_trial_3_double_cue_UP,NULL,PennController,20,_Trial_,Start,1638531386049,CURY_2,NULL
1638532387,4482cad4ed88b0912e8c24f9e8eba85c,PennController,16,0,p_trial_3_double_cue_UP,NULL,PennController,20,_Header_,Start,1638531386049,CURY_2,NULL
1638532387,4482cad4ed88b0912e8c24f9e8eba85c,PennController,16,0,p_trial_3_double_cue_UP,NULL,PennController,20,_Header_,End,1638531386049,CURY_2,NULL
1638532387,4482cad4ed88b0912e8c24f9e8eba85c,PennController,16,0,p_trial_3_double_cue_UP,NULL,PennController,20,_Trial_,End,1638531390697,CURY_2,NULL
1638532387,4482cad4ed88b0912e8c24f9e8eba85c,PennController,26,0,p_trial_4_spatial_cue_DOWN,NULL,PennController,30,_Trial_,Start,1638531390699,CURY_2,NULL
1638532387,4482cad4ed88b0912e8c24f9e8eba85c,PennController,26,0,p_trial_4_spatial_cue_DOWN,NULL,PennController,30,_Header_,Start,1638531390699,CURY_2,NULL
1638532387,4482cad4ed88b0912e8c24f9e8eba85c,PennController,26,0,p_trial_4_spatial_cue_DOWN,NULL,PennController,30,_Header_,End,1638531390699,CURY_2,NULL
1638532387,4482cad4ed88b0912e8c24f9e8eba85c,PennController,26,0,p_trial_4_spatial_cue_DOWN,NULL,PennController,30,_Trial_,End,1638531395367,CURY_2,NULL
1638532387,4482cad4ed88b0912e8c24f9e8eba85c,PennController,24,0,p_trial_4_spatial_cue_UP,NULL,PennController,28,_Trial_,Start,1638531395370,CURY_2,NULL
1638532387,4482cad4ed88b0912e8c24f9e8eba85c,PennController,24,0,p_trial_4_spatial_cue_UP,NULL,PennController,28,_Header_,Start,1638531395370,CURY_2,NULL
1638532387,4482cad4ed88b0912e8c24f9e8eba85c,PennController,24,0,p_trial_4_spatial_cue_UP,NULL,PennController,28,_Header_,End,1638531395370,CURY_2,NULL
1638532387,4482cad4ed88b0912e8c24f9e8eba85c,PennController,24,0,p_trial_4_spatial_cue_UP,NULL,PennController,28,_Trial_,End,1638531400413,CURY_2,NULL
1638532387,4482cad4ed88b0912e8c24f9e8eba85c,PennController,19,0,p_trial_3_double_cue_DOWN,NULL,PennController,23,_Trial_,Start,1638531400415,CURY_2,NULL
1638532387,4482cad4ed88b0912e8c24f9e8eba85c,PennController,19,0,p_trial_3_double_cue_DOWN,NULL,PennController,23,_Header_,Start,1638531400415,CURY_2,NULL
1638532387,4482cad4ed88b0912e8c24f9e8eba85c,PennController,19,0,p_trial_3_double_cue_DOWN,NULL,PennController,23,_Header_,End,1638531400415,CURY_2,NULL
1638532387,4482cad4ed88b0912e8c24f9e8eba85c,PennController,19,0,p_trial_3_double_cue_DOWN,NULL,PennController,23,_Trial_,End,1638531405893,CURY_2,NULL
1638532387,4482cad4ed88b0912e8c24f9e8eba85c,PennController,14,0,p_trial_2_center_cue_DOWN,NULL,PennController,18,_Trial_,Start,1638531405895,CURY_2,NULL
1638532387,4482cad4ed88b0912e8c24f9e8eba85c,PennController,14,0,p_trial_2_center_cue_DOWN,NULL,PennController,18,_Header_,Start,1638531405895,CURY_2,NULL
1638532387,4482cad4ed88b0912e8c24f9e8eba85c,PennController,14,0,p_trial_2_center_cue_DOWN,NULL,PennController,18,_Header_,End,1638531405895,CURY_2,NULL
1638532387,4482cad4ed88b0912e8c24f9e8eba85c,PennController,14,0,p_trial_2_center_cue_DOWN,NULL,PennController,18,_Trial_,End,1638531410675,CURY_2,NULL
1638532387,4482cad4ed88b0912e8c24f9e8eba85c,PennController,11,0,p_trial_2_center_cue_UP,NULL,PennController,15,_Trial_,Start,1638531410677,CURY_2,NULL
1638532387,4482cad4ed88b0912e8c24f9e8eba85c,PennController,11,0,p_trial_2_center_cue_UP,NULL,PennController,15,_Header_,Start,1638531410677,CURY_2,NULL
1638532387,4482cad4ed88b0912e8c24f9e8eba85c,PennController,11,0,p_trial_2_center_cue_UP,NULL,PennController,15,_Header_,End,1638531410677,CURY_2,NULL
1638532387,4482cad4ed88b0912e8c24f9e8eba85c,PennController,11,0,p_trial_2_center_cue_UP,NULL,PennController,15,_Trial_,End,1638531415382,CURY_2,NULL
1638532387,4482cad4ed88b0912e8c24f9e8eba85c,PennController,6,0,p_trial_1_no_cue_UP,NULL,PennController,10,_Trial_,Start,1638531415384,CURY_2,NULL
1638532387,4482cad4ed88b0912e8c24f9e8eba85c,PennController,6,0,p_trial_1_no_cue_UP,NULL,PennController,10,_Header_,Start,1638531415384,CURY_2,NULL
1638532387,4482cad4ed88b0912e8c24f9e8eba85c,PennController,6,0,p_trial_1_no_cue_UP,NULL,PennController,10,_Header_,End,1638531415384,CURY_2,NULL
1638532387,4482cad4ed88b0912e8c24f9e8eba85c,PennController,6,0,p_trial_1_no_cue_UP,NULL,PennController,10,_Trial_,End,1638531420096,CURY_2,NULL
1638532387,4482cad4ed88b0912e8c24f9e8eba85c,PennController,7,0,p_trial_1_no_cue_DOWN,NULL,PennController,11,_Trial_,Start,1638531420097,CURY_2,NULL
1638532387,4482cad4ed88b0912e8c24f9e8eba85c,PennController,7,0,p_trial_1_no_cue_DOWN,NULL,PennController,11,_Header_,Start,1638531420097,CURY_2,NULL
1638532387,4482cad4ed88b0912e8c24f9e8eba85c,PennController,7,0,p_trial_1_no_cue_DOWN,NULL,PennController,11,_Header_,End,1638531420098,CURY_2,NULL
1638532387,4482cad4ed88b0912e8c24f9e8eba85c,PennController,7,0,p_trial_1_no_cue_DOWN,NULL,PennController,11,_Trial_,End,1638531426553,CURY_2,NULL
1638532387,4482cad4ed88b0912e8c24f9e8eba85c,PennController,18,0,p_trial_3_double_cue_UP,NULL,PennController,22,_Trial_,Start,1638531426555,CURY_2,NULL
1638532387,4482cad4ed88b0912e8c24f9e8eba85c,PennController,18,0,p_trial_3_double_cue_UP,NULL,PennController,22,_Header_,Start,1638531426555,CURY_2,NULL
1638532387,4482cad4ed88b0912e8c24f9e8eba85c,PennController,18,0,p_trial_3_double_cue_UP,NULL,PennController,22,_Header_,End,1638531426555,CURY_2,NULL
1638532387,4482cad4ed88b0912e8c24f9e8eba85c,PennController,18,0,p_trial_3_double_cue_UP,NULL,PennController,22,_Trial_,End,1638531432487,CURY_2,NULL
1638532387,4482cad4ed88b0912e8c24f9e8eba85c,PennController,27,0,p_trial_4_spatial_cue_DOWN,NULL,PennController,31,_Trial_,Start,1638531432489,CURY_2,NULL
1638532387,4482cad4ed88b0912e8c24f9e8eba85c,PennController,27,0,p_trial_4_spatial_cue_DOWN,NULL,PennController,31,_Header_,Start,1638531432489,CURY_2,NULL
1638532387,4482cad4ed88b0912e8c24f9e8eba85c,PennController,27,0,p_trial_4_spatial_cue_DOWN,NULL,PennController,31,_Header_,End,1638531432489,CURY_2,NULL
1638532387,4482cad4ed88b0912e8c24f9e8eba85c,PennController,27,0,p_trial_4_spatial_cue_DOWN,NULL,PennController,31,_Trial_,End,1638531437928,CURY_2,NULL
1638532387,4482cad4ed88b0912e8c24f9e8eba85c,PennController,22,0,p_trial_4_spatial_cue_UP,NULL,PennController,26,_Trial_,Start,1638531437930,CURY_2,NULL
1638532387,4482cad4ed88b0912e8c24f9e8eba85c,PennController,22,0,p_trial_4_spatial_cue_UP,NULL,PennController,26,_Header_,Start,1638531437930,CURY_2,NULL
1638532387,4482cad4ed88b0912e8c24f9e8eba85c,PennController,22,0,p_trial_4_spatial_cue_UP,NULL,PennController,26,_Header_,End,1638531437931,CURY_2,NULL
1638532387,4482cad4ed88b0912e8c24f9e8eba85c,PennController,22,0,p_trial_4_spatial_cue_UP,NULL,PennController,26,_Trial_,End,1638531443124,CURY_2,NULL
1638532387,4482cad4ed88b0912e8c24f9e8eba85c,PennController,20,0,p_trial_3_double_cue_DOWN,NULL,PennController,24,_Trial_,Start,1638531443127,CURY_2,NULL
1638532387,4482cad4ed88b0912e8c24f9e8eba85c,PennController,20,0,p_trial_3_double_cue_DOWN,NULL,PennController,24,_Header_,Start,1638531443127,CURY_2,NULL
1638532387,4482cad4ed88b0912e8c24f9e8eba85c,PennController,20,0,p_trial_3_double_cue_DOWN,NULL,PennController,24,_Header_,End,1638531443127,CURY_2,NULL
1638532387,4482cad4ed88b0912e8c24f9e8eba85c,PennController,20,0,p_trial_3_double_cue_DOWN,NULL,PennController,24,_Trial_,End,1638531448499,CURY_2,NULL
1638532387,4482cad4ed88b0912e8c24f9e8eba85c,PennController,15,0,p_trial_2_center_cue_DOWN,NULL,PennController,19,_Trial_,Start,1638531448502,CURY_2,NULL
1638532387,4482cad4ed88b0912e8c24f9e8eba85c,PennController,15,0,p_trial_2_center_cue_DOWN,NULL,PennController,19,_Header_,Start,1638531448502,CURY_2,NULL
1638532387,4482cad4ed88b0912e8c24f9e8eba85c,PennController,15,0,p_trial_2_center_cue_DOWN,NULL,PennController,19,_Header_,End,1638531448502,CURY_2,NULL
1638532387,4482cad4ed88b0912e8c24f9e8eba85c,PennController,15,0,p_trial_2_center_cue_DOWN,NULL,PennController,19,_Trial_,End,1638531453205,CURY_2,NULL
1638532387,4482cad4ed88b0912e8c24f9e8eba85c,PennController,12,0,p_trial_2_center_cue_UP,NULL,PennController,16,_Trial_,Start,1638531453208,CURY_2,NULL
1638532387,4482cad4ed88b0912e8c24f9e8eba85c,PennController,12,0,p_trial_2_center_cue_UP,NULL,PennController,16,_Header_,Start,1638531453208,CURY_2,NULL
1638532387,4482cad4ed88b0912e8c24f9e8eba85c,PennController,12,0,p_trial_2_center_cue_UP,NULL,PennController,16,_Header_,End,1638531453208,CURY_2,NULL
1638532387,4482cad4ed88b0912e8c24f9e8eba85c,PennController,12,0,p_trial_2_center_cue_UP,NULL,PennController,16,_Trial_,End,1638531458775,CURY_2,NULL
1638532387,4482cad4ed88b0912e8c24f9e8eba85c,PennController,5,0,p_trial_1_no_cue_UP,NULL,PennController,9,_Trial_,Start,1638531458777,CURY_2,NULL
1638532387,4482cad4ed88b0912e8c24f9e8eba85c,PennController,5,0,p_trial_1_no_cue_UP,NULL,PennController,9,_Header_,Start,1638531458777,CURY_2,NULL
1638532387,4482cad4ed88b0912e8c24f9e8eba85c,PennController,5,0,p_trial_1_no_cue_UP,NULL,PennController,9,_Header_,End,1638531458777,CURY_2,NULL
1638532387,4482cad4ed88b0912e8c24f9e8eba85c,PennController,5,0,p_trial_1_no_cue_UP,NULL,PennController,9,_Trial_,End,1638531463560,CURY_2,NULL
1638532387,4482cad4ed88b0912e8c24f9e8eba85c,PennController,9,0,p_trial_1_no_cue_DOWN,NULL,PennController,13,_Trial_,Start,1638531463562,CURY_2,NULL
1638532387,4482cad4ed88b0912e8c24f9e8eba85c,PennController,9,0,p_trial_1_no_cue_DOWN,NULL,PennController,13,_Header_,Start,1638531463562,CURY_2,NULL
1638532387,4482cad4ed88b0912e8c24f9e8eba85c,PennController,9,0,p_trial_1_no_cue_DOWN,NULL,PennController,13,_Header_,End,1638531463562,CURY_2,NULL
1638532387,4482cad4ed88b0912e8c24f9e8eba85c,PennController,9,0,p_trial_1_no_cue_DOWN,NULL,PennController,13,_Trial_,End,1638531468077,CURY_2,NULL
1638532387,4482cad4ed88b0912e8c24f9e8eba85c,PennController,17,0,p_trial_3_double_cue_UP,NULL,PennController,21,_Trial_,Start,1638531468079,CURY_2,NULL
1638532387,4482cad4ed88b0912e8c24f9e8eba85c,PennController,17,0,p_trial_3_double_cue_UP,NULL,PennController,21,_Header_,Start,1638531468079,CURY_2,NULL
1638532387,4482cad4ed88b0912e8c24f9e8eba85c,PennController,17,0,p_trial_3_double_cue_UP,NULL,PennController,21,_Header_,End,1638531468079,CURY_2,NULL
1638532387,4482cad4ed88b0912e8c24f9e8eba85c,PennController,17,0,p_trial_3_double_cue_UP,NULL,PennController,21,_Trial_,End,1638531474077,CURY_2,NULL
1638532387,4482cad4ed88b0912e8c24f9e8eba85c,PennController,25,0,p_trial_4_spatial_cue_DOWN,NULL,PennController,29,_Trial_,Start,1638531474079,CURY_2,NULL
1638532387,4482cad4ed88b0912e8c24f9e8eba85c,PennController,25,0,p_trial_4_spatial_cue_DOWN,NULL,PennController,29,_Header_,Start,1638531474079,CURY_2,NULL
1638532387,4482cad4ed88b0912e8c24f9e8eba85c,PennController,25,0,p_trial_4_spatial_cue_DOWN,NULL,PennController,29,_Header_,End,1638531474079,CURY_2,NULL
1638532387,4482cad4ed88b0912e8c24f9e8eba85c,PennController,25,0,p_trial_4_spatial_cue_DOWN,NULL,PennController,29,_Trial_,End,1638531480144,CURY_2,NULL
1638532387,4482cad4ed88b0912e8c24f9e8eba85c,PennController,23,0,p_trial_4_spatial_cue_UP,NULL,PennController,27,_Trial_,Start,1638531480146,CURY_2,NULL
1638532387,4482cad4ed88b0912e8c24f9e8eba85c,PennController,23,0,p_trial_4_spatial_cue_UP,NULL,PennController,27,_Header_,Start,1638531480146,CURY_2,NULL
1638532387,4482cad4ed88b0912e8c24f9e8eba85c,PennController,23,0,p_trial_4_spatial_cue_UP,NULL,PennController,27,_Header_,End,1638531480146,CURY_2,NULL
1638532387,4482cad4ed88b0912e8c24f9e8eba85c,PennController,23,0,p_trial_4_spatial_cue_UP,NULL,PennController,27,_Trial_,End,1638531487310,CURY_2,NULL
1638532387,4482cad4ed88b0912e8c24f9e8eba85c,PennController,21,0,p_trial_3_double_cue_DOWN,NULL,PennController,25,_Trial_,Start,1638531487312,CURY_2,NULL
1638532387,4482cad4ed88b0912e8c24f9e8eba85c,PennController,21,0,p_trial_3_double_cue_DOWN,NULL,PennController,25,_Header_,Start,1638531487312,CURY_2,NULL
1638532387,4482cad4ed88b0912e8c24f9e8eba85c,PennController,21,0,p_trial_3_double_cue_DOWN,NULL,PennController,25,_Header_,End,1638531487312,CURY_2,NULL
1638532387,4482cad4ed88b0912e8c24f9e8eba85c,PennController,21,0,p_trial_3_double_cue_DOWN,NULL,PennController,25,_Trial_,End,1638531493537,CURY_2,NULL
1638532387,4482cad4ed88b0912e8c24f9e8eba85c,PennController,13,0,p_trial_2_center_cue_DOWN,NULL,PennController,17,_Trial_,Start,1638531493539,CURY_2,NULL
1638532387,4482cad4ed88b0912e8c24f9e8eba85c,PennController,13,0,p_trial_2_center_cue_DOWN,NULL,PennController,17,_Header_,Start,1638531493539,CURY_2,NULL
1638532387,4482cad4ed88b0912e8c24f9e8eba85c,PennController,13,0,p_trial_2_center_cue_DOWN,NULL,PennController,17,_Header_,End,1638531493539,CURY_2,NULL
1638532387,4482cad4ed88b0912e8c24f9e8eba85c,PennController,13,0,p_trial_2_center_cue_DOWN,NULL,PennController,17,_Trial_,End,1638531498197,CURY_2,NULL
1638532387,4482cad4ed88b0912e8c24f9e8eba85c,PennController,10,0,p_trial_2_center_cue_UP,NULL,PennController,14,_Trial_,Start,1638531498199,CURY_2,NULL
1638532387,4482cad4ed88b0912e8c24f9e8eba85c,PennController,10,0,p_trial_2_center_cue_UP,NULL,PennController,14,_Header_,Start,1638531498199,CURY_2,NULL
1638532387,4482cad4ed88b0912e8c24f9e8eba85c,PennController,10,0,p_trial_2_center_cue_UP,NULL,PennController,14,_Header_,End,1638531498199,CURY_2,NULL
1638532387,4482cad4ed88b0912e8c24f9e8eba85c,PennController,10,0,p_trial_2_center_cue_UP,NULL,PennController,14,_Trial_,End,1638531506488,CURY_2,NULL
1638532387,4482cad4ed88b0912e8c24f9e8eba85c,PennController,4,0,p_trial_1_no_cue_UP,NULL,PennController,8,_Trial_,Start,1638531506490,CURY_2,NULL
1638532387,4482cad4ed88b0912e8c24f9e8eba85c,PennController,4,0,p_trial_1_no_cue_UP,NULL,PennController,8,_Header_,Start,1638531506490,CURY_2,NULL
1638532387,4482cad4ed88b0912e8c24f9e8eba85c,PennController,4,0,p_trial_1_no_cue_UP,NULL,PennController,8,_Header_,End,1638531506491,CURY_2,NULL
1638532387,4482cad4ed88b0912e8c24f9e8eba85c,PennController,4,0,p_trial_1_no_cue_UP,NULL,PennController,8,_Trial_,End,1638531511921,CURY_2,NULL
1638532387,4482cad4ed88b0912e8c24f9e8eba85c,PennController,8,0,p_trial_1_no_cue_DOWN,NULL,PennController,12,_Trial_,Start,1638531511923,CURY_2,NULL
1638532387,4482cad4ed88b0912e8c24f9e8eba85c,PennController,8,0,p_trial_1_no_cue_DOWN,NULL,PennController,12,_Header_,Start,1638531511923,CURY_2,NULL
1638532387,4482cad4ed88b0912e8c24f9e8eba85c,PennController,8,0,p_trial_1_no_cue_DOWN,NULL,PennController,12,_Header_,End,1638531511923,CURY_2,NULL
1638532387,4482cad4ed88b0912e8c24f9e8eba85c,PennController,8,0,p_trial_1_no_cue_DOWN,NULL,PennController,12,_Trial_,End,1638531516945,CURY_2,NULL
1638532387,4482cad4ed88b0912e8c24f9e8eba85c,PennController,28,0,instructions_E,NULL,PennController,4,_Trial_,Start,1638531516947,CURY_2,NULL
1638532387,4482cad4ed88b0912e8c24f9e8eba85c,PennController,28,0,instructions_E,NULL,PennController,4,_Header_,Start,1638531516947,CURY_2,NULL
1638532387,4482cad4ed88b0912e8c24f9e8eba85c,PennController,28,0,instructions_E,NULL,PennController,4,_Header_,End,1638531516947,CURY_2,NULL
1638532387,4482cad4ed88b0912e8c24f9e8eba85c,PennController,28,0,instructions_E,NULL,PennController,4,_Trial_,End,1638531519774,CURY_2,NULL
# 14. imagens.
# 15. item.
# 16. Comments.
1638532387,4482cad4ed88b0912e8c24f9e8eba85c,PennController,74,0,trial_4_spatial_cue_DOWN,NULL,PennController,77,_Trial_,Start,1638531519775,CURY_2,cong-left.png,4,NULL
1638532387,4482cad4ed88b0912e8c24f9e8eba85c,PennController,74,0,trial_4_spatial_cue_DOWN,NULL,PennController,77,_Header_,Start,1638531519775,CURY_2,cong-left.png,4,NULL
1638532387,4482cad4ed88b0912e8c24f9e8eba85c,PennController,74,0,trial_4_spatial_cue_DOWN,NULL,PennController,77,_Header_,End,1638531519775,CURY_2,cong-left.png,4,NULL
1638532387,4482cad4ed88b0912e8c24f9e8eba85c,PennController,74,0,trial_4_spatial_cue_DOWN,NULL,Canvas,center,Print,NA,1638531521287,CURY_2,cong-left.png,4,NULL
1638532387,4482cad4ed88b0912e8c24f9e8eba85c,PennController,74,0,trial_4_spatial_cue_DOWN,NULL,Key,keypress1,PressedKey,E,1638531522031,CURY_2,cong-left.png,4,Wait success
1638532387,4482cad4ed88b0912e8c24f9e8eba85c,PennController,74,0,trial_4_spatial_cue_DOWN,NULL,PennController,77,_Trial_,End,1638531524938,CURY_2,cong-left.png,4,NULL
1638532387,4482cad4ed88b0912e8c24f9e8eba85c,PennController,44,0,trial_2_center_cue_UP,NULL,PennController,47,_Trial_,Start,1638531524940,CURY_2,cong-left.png,4,NULL
1638532387,4482cad4ed88b0912e8c24f9e8eba85c,PennController,44,0,trial_2_center_cue_UP,NULL,PennController,47,_Header_,Start,1638531524940,CURY_2,cong-left.png,4,NULL
1638532387,4482cad4ed88b0912e8c24f9e8eba85c,PennController,44,0,trial_2_center_cue_UP,NULL,PennController,47,_Header_,End,1638531524940,CURY_2,cong-left.png,4,NULL
1638532387,4482cad4ed88b0912e8c24f9e8eba85c,PennController,44,0,trial_2_center_cue_UP,NULL,Canvas,center,Print,NA,1638531526451,CURY_2,cong-left.png,4,NULL
1638532387,4482cad4ed88b0912e8c24f9e8eba85c,PennController,44,0,trial_2_center_cue_UP,NULL,Key,keypress1,PressedKey,E,1638531527704,CURY_2,cong-left.png,4,Wait success
1638532387,4482cad4ed88b0912e8c24f9e8eba85c,PennController,44,0,trial_2_center_cue_UP,NULL,PennController,47,_Trial_,End,1638531530615,CURY_2,cong-left.png,4,NULL
1638532387,4482cad4ed88b0912e8c24f9e8eba85c,PennController,40,0,trial_1_no_cue_DOWN,NULL,PennController,43,_Trial_,Start,1638531530617,CURY_2,neutral-left.png,6,NULL
1638532387,4482cad4ed88b0912e8c24f9e8eba85c,PennController,40,0,trial_1_no_cue_DOWN,NULL,PennController,43,_Header_,Start,1638531530617,CURY_2,neutral-left.png,6,NULL
1638532387,4482cad4ed88b0912e8c24f9e8eba85c,PennController,40,0,trial_1_no_cue_DOWN,NULL,PennController,43,_Header_,End,1638531530617,CURY_2,neutral-left.png,6,NULL
1638532387,4482cad4ed88b0912e8c24f9e8eba85c,PennController,40,0,trial_1_no_cue_DOWN,NULL,Canvas,center,Print,NA,1638531532130,CURY_2,neutral-left.png,6,NULL
1638532387,4482cad4ed88b0912e8c24f9e8eba85c,PennController,40,0,trial_1_no_cue_DOWN,NULL,Key,keypress1,PressedKey,E,1638531533126,CURY_2,neutral-left.png,6,Wait success
1638532387,4482cad4ed88b0912e8c24f9e8eba85c,PennController,40,0,trial_1_no_cue_DOWN,NULL,PennController,43,_Trial_,End,1638531536034,CURY_2,neutral-left.png,6,NULL
1638532387,4482cad4ed88b0912e8c24f9e8eba85c,PennController,68,0,trial_4_spatial_cue_UP,NULL,PennController,71,_Trial_,Start,1638531536036,CURY_2,cong-left.png,4,NULL
1638532387,4482cad4ed88b0912e8c24f9e8eba85c,PennController,68,0,trial_4_spatial_cue_UP,NULL,PennController,71,_Header_,Start,1638531536036,CURY_2,cong-left.png,4,NULL
1638532387,4482cad4ed88b0912e8c24f9e8eba85c,PennController,68,0,trial_4_spatial_cue_UP,NULL,PennController,71,_Header_,End,1638531536036,CURY_2,cong-left.png,4,NULL
1638532387,4482cad4ed88b0912e8c24f9e8eba85c,PennController,68,0,trial_4_spatial_cue_UP,NULL,Canvas,center,Print,NA,1638531537551,CURY_2,cong-left.png,4,NULL
1638532387,4482cad4ed88b0912e8c24f9e8eba85c,PennController,68,0,trial_4_spatial_cue_UP,NULL,Key,keypress1,PressedKey,E,1638531538399,CURY_2,cong-left.png,4,Wait success
1638532387,4482cad4ed88b0912e8c24f9e8eba85c,PennController,68,0,trial_4_spatial_cue_UP,NULL,PennController,71,_Trial_,End,1638531541305,CURY_2,cong-left.png,4,NULL
1638532387,4482cad4ed88b0912e8c24f9e8eba85c,PennController,47,0,trial_2_center_cue_DOWN,NULL,PennController,50,_Trial_,Start,1638531541306,CURY_2,cong-right.png,1,NULL
1638532387,4482cad4ed88b0912e8c24f9e8eba85c,PennController,47,0,trial_2_center_cue_DOWN,NULL,PennController,50,_Header_,Start,1638531541306,CURY_2,cong-right.png,1,NULL
1638532387,4482cad4ed88b0912e8c24f9e8eba85c,PennController,47,0,trial_2_center_cue_DOWN,NULL,PennController,50,_Header_,End,1638531541307,CURY_2,cong-right.png,1,NULL
1638532387,4482cad4ed88b0912e8c24f9e8eba85c,PennController,47,0,trial_2_center_cue_DOWN,NULL,Canvas,center,Print,NA,1638531542817,CURY_2,cong-right.png,1,NULL
1638532387,4482cad4ed88b0912e8c24f9e8eba85c,PennController,47,0,trial_2_center_cue_DOWN,NULL,Key,keypress1,PressedKey,I,1638531543617,CURY_2,cong-right.png,1,Wait success
1638532387,4482cad4ed88b0912e8c24f9e8eba85c,PennController,47,0,trial_2_center_cue_DOWN,NULL,PennController,50,_Trial_,End,1638531546526,CURY_2,cong-right.png,1,NULL
1638532387,4482cad4ed88b0912e8c24f9e8eba85c,PennController,33,0,trial_1_no_cue_UP,NULL,PennController,36,_Trial_,Start,1638531546529,CURY_2,incong-left.png,5,NULL
1638532387,4482cad4ed88b0912e8c24f9e8eba85c,PennController,33,0,trial_1_no_cue_UP,NULL,PennController,36,_Header_,Start,1638531546529,CURY_2,incong-left.png,5,NULL
1638532387,4482cad4ed88b0912e8c24f9e8eba85c,PennController,33,0,trial_1_no_cue_UP,NULL,PennController,36,_Header_,End,1638531546529,CURY_2,incong-left.png,5,NULL
1638532387,4482cad4ed88b0912e8c24f9e8eba85c,PennController,33,0,trial_1_no_cue_UP,NULL,Canvas,center,Print,NA,1638531548043,CURY_2,incong-left.png,5,NULL
1638532387,4482cad4ed88b0912e8c24f9e8eba85c,PennController,33,0,trial_1_no_cue_UP,NULL,Key,keypress1,PressedKey,E,1638531549188,CURY_2,incong-left.png,5,Wait success
1638532387,4482cad4ed88b0912e8c24f9e8eba85c,PennController,33,0,trial_1_no_cue_UP,NULL,PennController,36,_Trial_,End,1638531552096,CURY_2,incong-left.png,5,NULL
1638532387,4482cad4ed88b0912e8c24f9e8eba85c,PennController,55,0,trial_3_double_cue_UP,NULL,PennController,58,_Trial_,Start,1638531552099,CURY_2,neutral-right.png,3,NULL
1638532387,4482cad4ed88b0912e8c24f9e8eba85c,PennController,55,0,trial_3_double_cue_UP,NULL,PennController,58,_Header_,Start,1638531552099,CURY_2,neutral-right.png,3,NULL
1638532387,4482cad4ed88b0912e8c24f9e8eba85c,PennController,55,0,trial_3_double_cue_UP,NULL,PennController,58,_Header_,End,1638531552099,CURY_2,neutral-right.png,3,NULL
1638532387,4482cad4ed88b0912e8c24f9e8eba85c,PennController,55,0,trial_3_double_cue_UP,NULL,Canvas,center,Print,NA,1638531553608,CURY_2,neutral-right.png,3,NULL
1638532387,4482cad4ed88b0912e8c24f9e8eba85c,PennController,55,0,trial_3_double_cue_UP,NULL,Key,keypress1,PressedKey,I,1638531554505,CURY_2,neutral-right.png,3,Wait success
1638532387,4482cad4ed88b0912e8c24f9e8eba85c,PennController,55,0,trial_3_double_cue_UP,NULL,PennController,58,_Trial_,End,1638531557414,CURY_2,neutral-right.png,3,NULL
1638532387,4482cad4ed88b0912e8c24f9e8eba85c,PennController,59,0,trial_3_double_cue_DOWN,NULL,PennController,62,_Trial_,Start,1638531557416,CURY_2,cong-right.png,1,NULL
1638532387,4482cad4ed88b0912e8c24f9e8eba85c,PennController,59,0,trial_3_double_cue_DOWN,NULL,PennController,62,_Header_,Start,1638531557416,CURY_2,cong-right.png,1,NULL
1638532387,4482cad4ed88b0912e8c24f9e8eba85c,PennController,59,0,trial_3_double_cue_DOWN,NULL,PennController,62,_Header_,End,1638531557416,CURY_2,cong-right.png,1,NULL
1638532387,4482cad4ed88b0912e8c24f9e8eba85c,PennController,59,0,trial_3_double_cue_DOWN,NULL,Canvas,center,Print,NA,1638531558931,CURY_2,cong-right.png,1,NULL
1638532387,4482cad4ed88b0912e8c24f9e8eba85c,PennController,59,0,trial_3_double_cue_DOWN,NULL,Key,keypress1,PressedKey,I,1638531559872,CURY_2,cong-right.png,1,Wait success
1638532387,4482cad4ed88b0912e8c24f9e8eba85c,PennController,59,0,trial_3_double_cue_DOWN,NULL,PennController,62,_Trial_,End,1638531562780,CURY_2,cong-right.png,1,NULL
1638532387,4482cad4ed88b0912e8c24f9e8eba85c,PennController,73,0,trial_4_spatial_cue_DOWN,NULL,PennController,76,_Trial_,Start,1638531562783,CURY_2,neutral-right.png,3,NULL
1638532387,4482cad4ed88b0912e8c24f9e8eba85c,PennController,73,0,trial_4_spatial_cue_DOWN,NULL,PennController,76,_Header_,Start,1638531562783,CURY_2,neutral-right.png,3,NULL
1638532387,4482cad4ed88b0912e8c24f9e8eba85c,PennController,73,0,trial_4_spatial_cue_DOWN,NULL,PennController,76,_Header_,End,1638531562783,CURY_2,neutral-right.png,3,NULL
1638532387,4482cad4ed88b0912e8c24f9e8eba85c,PennController,73,0,trial_4_spatial_cue_DOWN,NULL,Canvas,center,Print,NA,1638531564296,CURY_2,neutral-right.png,3,NULL
1638532387,4482cad4ed88b0912e8c24f9e8eba85c,PennController,73,0,trial_4_spatial_cue_DOWN,NULL,Key,keypress1,PressedKey,I,1638531565348,CURY_2,neutral-right.png,3,Wait success
1638532387,4482cad4ed88b0912e8c24f9e8eba85c,PennController,73,0,trial_4_spatial_cue_DOWN,NULL,PennController,76,_Trial_,End,1638531568257,CURY_2,neutral-right.png,3,NULL
1638532387,4482cad4ed88b0912e8c24f9e8eba85c,PennController,42,0,trial_2_center_cue_UP,NULL,PennController,45,_Trial_,Start,1638531568258,CURY_2,incong-right.png,2,NULL
1638532387,4482cad4ed88b0912e8c24f9e8eba85c,PennController,42,0,trial_2_center_cue_UP,NULL,PennController,45,_Header_,Start,1638531568258,CURY_2,incong-right.png,2,NULL
1638532387,4482cad4ed88b0912e8c24f9e8eba85c,PennController,42,0,trial_2_center_cue_UP,NULL,PennController,45,_Header_,End,1638531568258,CURY_2,incong-right.png,2,NULL
1638532387,4482cad4ed88b0912e8c24f9e8eba85c,PennController,42,0,trial_2_center_cue_UP,NULL,Canvas,center,Print,NA,1638531569774,CURY_2,incong-right.png,2,NULL
1638532387,4482cad4ed88b0912e8c24f9e8eba85c,PennController,42,0,trial_2_center_cue_UP,NULL,Key,keypress1,PressedKey,I,1638531570666,CURY_2,incong-right.png,2,Wait success
1638532387,4482cad4ed88b0912e8c24f9e8eba85c,PennController,42,0,trial_2_center_cue_UP,NULL,PennController,45,_Trial_,End,1638531573571,CURY_2,incong-right.png,2,NULL
1638532387,4482cad4ed88b0912e8c24f9e8eba85c,PennController,37,0,trial_1_no_cue_DOWN,NULL,PennController,40,_Trial_,Start,1638531573573,CURY_2,neutral-right.png,3,NULL
1638532387,4482cad4ed88b0912e8c24f9e8eba85c,PennController,37,0,trial_1_no_cue_DOWN,NULL,PennController,40,_Header_,Start,1638531573573,CURY_2,neutral-right.png,3,NULL
1638532387,4482cad4ed88b0912e8c24f9e8eba85c,PennController,37,0,trial_1_no_cue_DOWN,NULL,PennController,40,_Header_,End,1638531573573,CURY_2,neutral-right.png,3,NULL
1638532387,4482cad4ed88b0912e8c24f9e8eba85c,PennController,37,0,trial_1_no_cue_DOWN,NULL,Canvas,center,Print,NA,1638531575085,CURY_2,neutral-right.png,3,NULL
1638532387,4482cad4ed88b0912e8c24f9e8eba85c,PennController,37,0,trial_1_no_cue_DOWN,NULL,Key,keypress1,PressedKey,I,1638531576081,CURY_2,neutral-right.png,3,Wait success
1638532387,4482cad4ed88b0912e8c24f9e8eba85c,PennController,37,0,trial_1_no_cue_DOWN,NULL,PennController,40,_Trial_,End,1638531578988,CURY_2,neutral-right.png,3,NULL
1638532387,4482cad4ed88b0912e8c24f9e8eba85c,PennController,65,0,trial_4_spatial_cue_UP,NULL,PennController,68,_Trial_,Start,1638531578989,CURY_2,cong-right.png,1,NULL
1638532387,4482cad4ed88b0912e8c24f9e8eba85c,PennController,65,0,trial_4_spatial_cue_UP,NULL,PennController,68,_Header_,Start,1638531578989,CURY_2,cong-right.png,1,NULL
1638532387,4482cad4ed88b0912e8c24f9e8eba85c,PennController,65,0,trial_4_spatial_cue_UP,NULL,PennController,68,_Header_,End,1638531578990,CURY_2,cong-right.png,1,NULL
1638532387,4482cad4ed88b0912e8c24f9e8eba85c,PennController,65,0,trial_4_spatial_cue_UP,NULL,Canvas,center,Print,NA,1638531580501,CURY_2,cong-right.png,1,NULL
1638532387,4482cad4ed88b0912e8c24f9e8eba85c,PennController,65,0,trial_4_spatial_cue_UP,NULL,Key,keypress1,PressedKey,I,1638531581215,CURY_2,cong-right.png,1,Wait success
1638532387,4482cad4ed88b0912e8c24f9e8eba85c,PennController,65,0,trial_4_spatial_cue_UP,NULL,PennController,68,_Trial_,End,1638531584125,CURY_2,cong-right.png,1,NULL
1638532387,4482cad4ed88b0912e8c24f9e8eba85c,PennController,52,0,trial_2_center_cue_DOWN,NULL,PennController,55,_Trial_,Start,1638531584127,CURY_2,neutral-left.png,6,NULL
1638532387,4482cad4ed88b0912e8c24f9e8eba85c,PennController,52,0,trial_2_center_cue_DOWN,NULL,PennController,55,_Header_,Start,1638531584127,CURY_2,neutral-left.png,6,NULL
1638532387,4482cad4ed88b0912e8c24f9e8eba85c,PennController,52,0,trial_2_center_cue_DOWN,NULL,PennController,55,_Header_,End,1638531584127,CURY_2,neutral-left.png,6,NULL
1638532387,4482cad4ed88b0912e8c24f9e8eba85c,PennController,52,0,trial_2_center_cue_DOWN,NULL,Canvas,center,Print,NA,1638531585639,CURY_2,neutral-left.png,6,NULL
1638532387,4482cad4ed88b0912e8c24f9e8eba85c,PennController,52,0,trial_2_center_cue_DOWN,NULL,Key,keypress1,PressedKey,E,1638531586494,CURY_2,neutral-left.png,6,Wait success
1638532387,4482cad4ed88b0912e8c24f9e8eba85c,PennController,52,0,trial_2_center_cue_DOWN,NULL,PennController,55,_Trial_,End,1638531589404,CURY_2,neutral-left.png,6,NULL
1638532387,4482cad4ed88b0912e8c24f9e8eba85c,PennController,31,0,trial_1_no_cue_UP,NULL,PennController,34,_Trial_,Start,1638531589407,CURY_2,neutral-right.png,3,NULL
1638532387,4482cad4ed88b0912e8c24f9e8eba85c,PennController,31,0,trial_1_no_cue_UP,NULL,PennController,34,_Header_,Start,1638531589407,CURY_2,neutral-right.png,3,NULL
1638532387,4482cad4ed88b0912e8c24f9e8eba85c,PennController,31,0,trial_1_no_cue_UP,NULL,PennController,34,_Header_,End,1638531589407,CURY_2,neutral-right.png,3,NULL
1638532387,4482cad4ed88b0912e8c24f9e8eba85c,PennController,31,0,trial_1_no_cue_UP,NULL,Canvas,center,Print,NA,1638531590924,CURY_2,neutral-right.png,3,NULL
1638532387,4482cad4ed88b0912e8c24f9e8eba85c,PennController,31,0,trial_1_no_cue_UP,NULL,Key,keypress1,PressedKey,I,1638531591844,CURY_2,neutral-right.png,3,Wait success
1638532387,4482cad4ed88b0912e8c24f9e8eba85c,PennController,31,0,trial_1_no_cue_UP,NULL,PennController,34,_Trial_,End,1638531594751,CURY_2,neutral-right.png,3,NULL
1638532387,4482cad4ed88b0912e8c24f9e8eba85c,PennController,57,0,trial_3_double_cue_UP,NULL,PennController,60,_Trial_,Start,1638531594754,CURY_2,incong-left.png,5,NULL
1638532387,4482cad4ed88b0912e8c24f9e8eba85c,PennController,57,0,trial_3_double_cue_UP,NULL,PennController,60,_Header_,Start,1638531594754,CURY_2,incong-left.png,5,NULL
1638532387,4482cad4ed88b0912e8c24f9e8eba85c,PennController,57,0,trial_3_double_cue_UP,NULL,PennController,60,_Header_,End,1638531594754,CURY_2,incong-left.png,5,NULL
1638532387,4482cad4ed88b0912e8c24f9e8eba85c,PennController,57,0,trial_3_double_cue_UP,NULL,Canvas,center,Print,NA,1638531596263,CURY_2,incong-left.png,5,NULL
1638532387,4482cad4ed88b0912e8c24f9e8eba85c,PennController,57,0,trial_3_double_cue_UP,NULL,Key,keypress1,PressedKey,E,1638531597178,CURY_2,incong-left.png,5,Wait success
1638532387,4482cad4ed88b0912e8c24f9e8eba85c,PennController,57,0,trial_3_double_cue_UP,NULL,PennController,60,_Trial_,End,1638531600088,CURY_2,incong-left.png,5,NULL
1638532387,4482cad4ed88b0912e8c24f9e8eba85c,PennController,60,0,trial_3_double_cue_DOWN,NULL,PennController,63,_Trial_,Start,1638531600090,CURY_2,incong-right.png,2,NULL
1638532387,4482cad4ed88b0912e8c24f9e8eba85c,PennController,60,0,trial_3_double_cue_DOWN,NULL,PennController,63,_Header_,Start,1638531600090,CURY_2,incong-right.png,2,NULL
1638532387,4482cad4ed88b0912e8c24f9e8eba85c,PennController,60,0,trial_3_double_cue_DOWN,NULL,PennController,63,_Header_,End,1638531600090,CURY_2,incong-right.png,2,NULL
1638532387,4482cad4ed88b0912e8c24f9e8eba85c,PennController,60,0,trial_3_double_cue_DOWN,NULL,Canvas,center,Print,NA,1638531601601,CURY_2,incong-right.png,2,NULL
1638532387,4482cad4ed88b0912e8c24f9e8eba85c,PennController,60,0,trial_3_double_cue_DOWN,NULL,Key,keypress1,PressedKey,I,1638531602399,CURY_2,incong-right.png,2,Wait success
1638532387,4482cad4ed88b0912e8c24f9e8eba85c,PennController,60,0,trial_3_double_cue_DOWN,NULL,PennController,63,_Trial_,End,1638531605307,CURY_2,incong-right.png,2,NULL
1638532387,4482cad4ed88b0912e8c24f9e8eba85c,PennController,76,0,trial_4_spatial_cue_DOWN,NULL,PennController,79,_Trial_,Start,1638531605309,CURY_2,neutral-left.png,6,NULL
1638532387,4482cad4ed88b0912e8c24f9e8eba85c,PennController,76,0,trial_4_spatial_cue_DOWN,NULL,PennController,79,_Header_,Start,1638531605309,CURY_2,neutral-left.png,6,NULL
1638532387,4482cad4ed88b0912e8c24f9e8eba85c,PennController,76,0,trial_4_spatial_cue_DOWN,NULL,PennController,79,_Header_,End,1638531605309,CURY_2,neutral-left.png,6,NULL
1638532387,4482cad4ed88b0912e8c24f9e8eba85c,PennController,76,0,trial_4_spatial_cue_DOWN,NULL,Canvas,center,Print,NA,1638531606824,CURY_2,neutral-left.png,6,NULL
1638532387,4482cad4ed88b0912e8c24f9e8eba85c,PennController,76,0,trial_4_spatial_cue_DOWN,NULL,Key,keypress1,PressedKey,E,1638531607644,CURY_2,neutral-left.png,6,Wait success
1638532387,4482cad4ed88b0912e8c24f9e8eba85c,PennController,76,0,trial_4_spatial_cue_DOWN,NULL,PennController,79,_Trial_,End,1638531610551,CURY_2,neutral-left.png,6,NULL
1638532387,4482cad4ed88b0912e8c24f9e8eba85c,PennController,43,0,trial_2_center_cue_UP,NULL,PennController,46,_Trial_,Start,1638531610554,CURY_2,neutral-right.png,3,NULL
1638532387,4482cad4ed88b0912e8c24f9e8eba85c,PennController,43,0,trial_2_center_cue_UP,NULL,PennController,46,_Header_,Start,1638531610554,CURY_2,neutral-right.png,3,NULL
1638532387,4482cad4ed88b0912e8c24f9e8eba85c,PennController,43,0,trial_2_center_cue_UP,NULL,PennController,46,_Header_,End,1638531610554,CURY_2,neutral-right.png,3,NULL
1638532387,4482cad4ed88b0912e8c24f9e8eba85c,PennController,43,0,trial_2_center_cue_UP,NULL,Canvas,center,Print,NA,1638531612069,CURY_2,neutral-right.png,3,NULL
1638532387,4482cad4ed88b0912e8c24f9e8eba85c,PennController,43,0,trial_2_center_cue_UP,NULL,Key,keypress1,PressedKey,I,1638531612844,CURY_2,neutral-right.png,3,Wait success
1638532387,4482cad4ed88b0912e8c24f9e8eba85c,PennController,43,0,trial_2_center_cue_UP,NULL,PennController,46,_Trial_,End,1638531615755,CURY_2,neutral-right.png,3,NULL
1638532387,4482cad4ed88b0912e8c24f9e8eba85c,PennController,39,0,trial_1_no_cue_DOWN,NULL,PennController,42,_Trial_,Start,1638531615757,CURY_2,incong-left.png,5,NULL
1638532387,4482cad4ed88b0912e8c24f9e8eba85c,PennController,39,0,trial_1_no_cue_DOWN,NULL,PennController,42,_Header_,Start,1638531615757,CURY_2,incong-left.png,5,NULL
1638532387,4482cad4ed88b0912e8c24f9e8eba85c,PennController,39,0,trial_1_no_cue_DOWN,NULL,PennController,42,_Header_,End,1638531615757,CURY_2,incong-left.png,5,NULL
1638532387,4482cad4ed88b0912e8c24f9e8eba85c,PennController,39,0,trial_1_no_cue_DOWN,NULL,Canvas,center,Print,NA,1638531617268,CURY_2,incong-left.png,5,NULL
1638532387,4482cad4ed88b0912e8c24f9e8eba85c,PennController,39,0,trial_1_no_cue_DOWN,NULL,Key,keypress1,PressedKey,E,1638531618316,CURY_2,incong-left.png,5,Wait success
1638532387,4482cad4ed88b0912e8c24f9e8eba85c,PennController,39,0,trial_1_no_cue_DOWN,NULL,PennController,42,_Trial_,End,1638531621223,CURY_2,incong-left.png,5,NULL
1638532387,4482cad4ed88b0912e8c24f9e8eba85c,PennController,66,0,trial_4_spatial_cue_UP,NULL,PennController,69,_Trial_,Start,1638531621225,CURY_2,incong-right.png,2,NULL
1638532387,4482cad4ed88b0912e8c24f9e8eba85c,PennController,66,0,trial_4_spatial_cue_UP,NULL,PennController,69,_Header_,Start,1638531621225,CURY_2,incong-right.png,2,NULL
1638532387,4482cad4ed88b0912e8c24f9e8eba85c,PennController,66,0,trial_4_spatial_cue_UP,NULL,PennController,69,_Header_,End,1638531621225,CURY_2,incong-right.png,2,NULL
1638532387,4482cad4ed88b0912e8c24f9e8eba85c,PennController,66,0,trial_4_spatial_cue_UP,NULL,Canvas,center,Print,NA,1638531622737,CURY_2,incong-right.png,2,NULL
1638532387,4482cad4ed88b0912e8c24f9e8eba85c,PennController,66,0,trial_4_spatial_cue_UP,NULL,Key,keypress1,PressedKey,I,1638531623890,CURY_2,incong-right.png,2,Wait success
1638532387,4482cad4ed88b0912e8c24f9e8eba85c,PennController,66,0,trial_4_spatial_cue_UP,NULL,PennController,69,_Trial_,End,1638531626795,CURY_2,incong-right.png,2,NULL
1638532387,4482cad4ed88b0912e8c24f9e8eba85c,PennController,50,0,trial_2_center_cue_DOWN,NULL,PennController,53,_Trial_,Start,1638531626797,CURY_2,cong-left.png,4,NULL
1638532387,4482cad4ed88b0912e8c24f9e8eba85c,PennController,50,0,trial_2_center_cue_DOWN,NULL,PennController,53,_Header_,Start,1638531626797,CURY_2,cong-left.png,4,NULL
1638532387,4482cad4ed88b0912e8c24f9e8eba85c,PennController,50,0,trial_2_center_cue_DOWN,NULL,PennController,53,_Header_,End,1638531626797,CURY_2,cong-left.png,4,NULL
1638532387,4482cad4ed88b0912e8c24f9e8eba85c,PennController,50,0,trial_2_center_cue_DOWN,NULL,Canvas,center,Print,NA,1638531628305,CURY_2,cong-left.png,4,NULL
1638532387,4482cad4ed88b0912e8c24f9e8eba85c,PennController,50,0,trial_2_center_cue_DOWN,NULL,Key,keypress1,PressedKey,I,1638531629589,CURY_2,cong-left.png,4,Wait success
1638532387,4482cad4ed88b0912e8c24f9e8eba85c,PennController,50,0,trial_2_center_cue_DOWN,NULL,PennController,53,_Trial_,End,1638531632499,CURY_2,cong-left.png,4,NULL
1638532387,4482cad4ed88b0912e8c24f9e8eba85c,PennController,32,0,trial_1_no_cue_UP,NULL,PennController,35,_Trial_,Start,1638531632501,CURY_2,cong-left.png,4,NULL
1638532387,4482cad4ed88b0912e8c24f9e8eba85c,PennController,32,0,trial_1_no_cue_UP,NULL,PennController,35,_Header_,Start,1638531632501,CURY_2,cong-left.png,4,NULL
1638532387,4482cad4ed88b0912e8c24f9e8eba85c,PennController,32,0,trial_1_no_cue_UP,NULL,PennController,35,_Header_,End,1638531632501,CURY_2,cong-left.png,4,NULL
1638532387,4482cad4ed88b0912e8c24f9e8eba85c,PennController,32,0,trial_1_no_cue_UP,NULL,Canvas,center,Print,NA,1638531634009,CURY_2,cong-left.png,4,NULL
1638532387,4482cad4ed88b0912e8c24f9e8eba85c,PennController,32,0,trial_1_no_cue_UP,NULL,Key,keypress1,PressedKey,I,1638531635024,CURY_2,cong-left.png,4,Wait success
1638532387,4482cad4ed88b0912e8c24f9e8eba85c,PennController,32,0,trial_1_no_cue_UP,NULL,PennController,35,_Trial_,End,1638531637932,CURY_2,cong-left.png,4,NULL
1638532387,4482cad4ed88b0912e8c24f9e8eba85c,PennController,58,0,trial_3_double_cue_UP,NULL,PennController,61,_Trial_,Start,1638531637934,CURY_2,neutral-left.png,6,NULL
1638532387,4482cad4ed88b0912e8c24f9e8eba85c,PennController,58,0,trial_3_double_cue_UP,NULL,PennController,61,_Header_,Start,1638531637934,CURY_2,neutral-left.png,6,NULL
1638532387,4482cad4ed88b0912e8c24f9e8eba85c,PennController,58,0,trial_3_double_cue_UP,NULL,PennController,61,_Header_,End,1638531637934,CURY_2,neutral-left.png,6,NULL
1638532387,4482cad4ed88b0912e8c24f9e8eba85c,PennController,58,0,trial_3_double_cue_UP,NULL,Canvas,center,Print,NA,1638531639445,CURY_2,neutral-left.png,6,NULL
1638532387,4482cad4ed88b0912e8c24f9e8eba85c,PennController,58,0,trial_3_double_cue_UP,NULL,Key,keypress1,PressedKey,I,1638531640629,CURY_2,neutral-left.png,6,Wait success
1638532387,4482cad4ed88b0912e8c24f9e8eba85c,PennController,58,0,trial_3_double_cue_UP,NULL,PennController,61,_Trial_,End,1638531643534,CURY_2,neutral-left.png,6,NULL
1638532387,4482cad4ed88b0912e8c24f9e8eba85c,PennController,63,0,trial_3_double_cue_DOWN,NULL,PennController,66,_Trial_,Start,1638531643536,CURY_2,incong-left.png,5,NULL
1638532387,4482cad4ed88b0912e8c24f9e8eba85c,PennController,63,0,trial_3_double_cue_DOWN,NULL,PennController,66,_Header_,Start,1638531643536,CURY_2,incong-left.png,5,NULL
1638532387,4482cad4ed88b0912e8c24f9e8eba85c,PennController,63,0,trial_3_double_cue_DOWN,NULL,PennController,66,_Header_,End,1638531643536,CURY_2,incong-left.png,5,NULL
1638532387,4482cad4ed88b0912e8c24f9e8eba85c,PennController,63,0,trial_3_double_cue_DOWN,NULL,Canvas,center,Print,NA,1638531645047,CURY_2,incong-left.png,5,NULL
1638532387,4482cad4ed88b0912e8c24f9e8eba85c,PennController,63,0,trial_3_double_cue_DOWN,NULL,Key,keypress1,PressedKey,E,1638531646617,CURY_2,incong-left.png,5,Wait success
1638532387,4482cad4ed88b0912e8c24f9e8eba85c,PennController,63,0,trial_3_double_cue_DOWN,NULL,PennController,66,_Trial_,End,1638531649524,CURY_2,incong-left.png,5,NULL
1638532387,4482cad4ed88b0912e8c24f9e8eba85c,PennController,75,0,trial_4_spatial_cue_DOWN,NULL,PennController,78,_Trial_,Start,1638531649527,CURY_2,incong-left.png,5,NULL
1638532387,4482cad4ed88b0912e8c24f9e8eba85c,PennController,75,0,trial_4_spatial_cue_DOWN,NULL,PennController,78,_Header_,Start,1638531649527,CURY_2,incong-left.png,5,NULL
1638532387,4482cad4ed88b0912e8c24f9e8eba85c,PennController,75,0,trial_4_spatial_cue_DOWN,NULL,PennController,78,_Header_,End,1638531649527,CURY_2,incong-left.png,5,NULL
1638532387,4482cad4ed88b0912e8c24f9e8eba85c,PennController,75,0,trial_4_spatial_cue_DOWN,NULL,Canvas,center,Print,NA,1638531651041,CURY_2,incong-left.png,5,NULL
1638532387,4482cad4ed88b0912e8c24f9e8eba85c,PennController,75,0,trial_4_spatial_cue_DOWN,NULL,Key,keypress1,PressedKey,E,1638531651974,CURY_2,incong-left.png,5,Wait success
1638532387,4482cad4ed88b0912e8c24f9e8eba85c,PennController,75,0,trial_4_spatial_cue_DOWN,NULL,PennController,78,_Trial_,End,1638531654885,CURY_2,incong-left.png,5,NULL
1638532387,4482cad4ed88b0912e8c24f9e8eba85c,PennController,46,0,trial_2_center_cue_UP,NULL,PennController,49,_Trial_,Start,1638531654887,CURY_2,neutral-left.png,6,NULL
1638532387,4482cad4ed88b0912e8c24f9e8eba85c,PennController,46,0,trial_2_center_cue_UP,NULL,PennController,49,_Header_,Start,1638531654887,CURY_2,neutral-left.png,6,NULL
1638532387,4482cad4ed88b0912e8c24f9e8eba85c,PennController,46,0,trial_2_center_cue_UP,NULL,PennController,49,_Header_,End,1638531654887,CURY_2,neutral-left.png,6,NULL
1638532387,4482cad4ed88b0912e8c24f9e8eba85c,PennController,46,0,trial_2_center_cue_UP,NULL,Canvas,center,Print,NA,1638531656400,CURY_2,neutral-left.png,6,NULL
1638532387,4482cad4ed88b0912e8c24f9e8eba85c,PennController,46,0,trial_2_center_cue_UP,NULL,Key,keypress1,PressedKey,E,1638531657925,CURY_2,neutral-left.png,6,Wait success
1638532387,4482cad4ed88b0912e8c24f9e8eba85c,PennController,46,0,trial_2_center_cue_UP,NULL,PennController,49,_Trial_,End,1638531660835,CURY_2,neutral-left.png,6,NULL
1638532387,4482cad4ed88b0912e8c24f9e8eba85c,PennController,38,0,trial_1_no_cue_DOWN,NULL,PennController,41,_Trial_,Start,1638531660838,CURY_2,cong-left.png,4,NULL
1638532387,4482cad4ed88b0912e8c24f9e8eba85c,PennController,38,0,trial_1_no_cue_DOWN,NULL,PennController,41,_Header_,Start,1638531660838,CURY_2,cong-left.png,4,NULL
1638532387,4482cad4ed88b0912e8c24f9e8eba85c,PennController,38,0,trial_1_no_cue_DOWN,NULL,PennController,41,_Header_,End,1638531660838,CURY_2,cong-left.png,4,NULL
1638532387,4482cad4ed88b0912e8c24f9e8eba85c,PennController,38,0,trial_1_no_cue_DOWN,NULL,Canvas,center,Print,NA,1638531662354,CURY_2,cong-left.png,4,NULL
1638532387,4482cad4ed88b0912e8c24f9e8eba85c,PennController,38,0,trial_1_no_cue_DOWN,NULL,Key,keypress1,PressedKey,E,1638531663222,CURY_2,cong-left.png,4,Wait success
1638532387,4482cad4ed88b0912e8c24f9e8eba85c,PennController,38,0,trial_1_no_cue_DOWN,NULL,PennController,41,_Trial_,End,1638531666134,CURY_2,cong-left.png,4,NULL
1638532387,4482cad4ed88b0912e8c24f9e8eba85c,PennController,69,0,trial_4_spatial_cue_UP,NULL,PennController,72,_Trial_,Start,1638531666137,CURY_2,incong-left.png,5,NULL
1638532387,4482cad4ed88b0912e8c24f9e8eba85c,PennController,69,0,trial_4_spatial_cue_UP,NULL,PennController,72,_Header_,Start,1638531666137,CURY_2,incong-left.png,5,NULL
1638532387,4482cad4ed88b0912e8c24f9e8eba85c,PennController,69,0,trial_4_spatial_cue_UP,NULL,PennController,72,_Header_,End,1638531666137,CURY_2,incong-left.png,5,NULL
1638532387,4482cad4ed88b0912e8c24f9e8eba85c,PennController,69,0,trial_4_spatial_cue_UP,NULL,Canvas,center,Print,NA,1638531667652,CURY_2,incong-left.png,5,NULL
1638532387,4482cad4ed88b0912e8c24f9e8eba85c,PennController,69,0,trial_4_spatial_cue_UP,NULL,Key,keypress1,PressedKey,E,1638531669190,CURY_2,incong-left.png,5,Wait success
1638532387,4482cad4ed88b0912e8c24f9e8eba85c,PennController,69,0,trial_4_spatial_cue_UP,NULL,PennController,72,_Trial_,End,1638531672102,CURY_2,incong-left.png,5,NULL
1638532387,4482cad4ed88b0912e8c24f9e8eba85c,PennController,48,0,trial_2_center_cue_DOWN,NULL,PennController,51,_Trial_,Start,1638531672105,CURY_2,incong-right.png,2,NULL
1638532387,4482cad4ed88b0912e8c24f9e8eba85c,PennController,48,0,trial_2_center_cue_DOWN,NULL,PennController,51,_Header_,Start,1638531672105,CURY_2,incong-right.png,2,NULL
1638532387,4482cad4ed88b0912e8c24f9e8eba85c,PennController,48,0,trial_2_center_cue_DOWN,NULL,PennController,51,_Header_,End,1638531672105,CURY_2,incong-right.png,2,NULL
1638532387,4482cad4ed88b0912e8c24f9e8eba85c,PennController,48,0,trial_2_center_cue_DOWN,NULL,Canvas,center,Print,NA,1638531673609,CURY_2,incong-right.png,2,NULL
1638532387,4482cad4ed88b0912e8c24f9e8eba85c,PennController,48,0,trial_2_center_cue_DOWN,NULL,Key,keypress1,PressedKey,I,1638531674690,CURY_2,incong-right.png,2,Wait success
1638532387,4482cad4ed88b0912e8c24f9e8eba85c,PennController,48,0,trial_2_center_cue_DOWN,NULL,PennController,51,_Trial_,End,1638531677597,CURY_2,incong-right.png,2,NULL
1638532387,4482cad4ed88b0912e8c24f9e8eba85c,PennController,34,0,trial_1_no_cue_UP,NULL,PennController,37,_Trial_,Start,1638531677598,CURY_2,neutral-left.png,6,NULL
1638532387,4482cad4ed88b0912e8c24f9e8eba85c,PennController,34,0,trial_1_no_cue_UP,NULL,PennController,37,_Header_,Start,1638531677598,CURY_2,neutral-left.png,6,NULL
1638532387,4482cad4ed88b0912e8c24f9e8eba85c,PennController,34,0,trial_1_no_cue_UP,NULL,PennController,37,_Header_,End,1638531677598,CURY_2,neutral-left.png,6,NULL
1638532387,4482cad4ed88b0912e8c24f9e8eba85c,PennController,34,0,trial_1_no_cue_UP,NULL,Canvas,center,Print,NA,1638531679108,CURY_2,neutral-left.png,6,NULL
1638532387,4482cad4ed88b0912e8c24f9e8eba85c,PennController,34,0,trial_1_no_cue_UP,NULL,Key,keypress1,PressedKey,E,1638531680525,CURY_2,neutral-left.png,6,Wait success
1638532387,4482cad4ed88b0912e8c24f9e8eba85c,PennController,34,0,trial_1_no_cue_UP,NULL,PennController,37,_Trial_,End,1638531683436,CURY_2,neutral-left.png,6,NULL
1638532387,4482cad4ed88b0912e8c24f9e8eba85c,PennController,56,0,trial_3_double_cue_UP,NULL,PennController,59,_Trial_,Start,1638531683438,CURY_2,cong-left.png,4,NULL
1638532387,4482cad4ed88b0912e8c24f9e8eba85c,PennController,56,0,trial_3_double_cue_UP,NULL,PennController,59,_Header_,Start,1638531683438,CURY_2,cong-left.png,4,NULL
1638532387,4482cad4ed88b0912e8c24f9e8eba85c,PennController,56,0,trial_3_double_cue_UP,NULL,PennController,59,_Header_,End,1638531683438,CURY_2,cong-left.png,4,NULL
1638532387,4482cad4ed88b0912e8c24f9e8eba85c,PennController,56,0,trial_3_double_cue_UP,NULL,Canvas,center,Print,NA,1638531684953,CURY_2,cong-left.png,4,NULL
1638532387,4482cad4ed88b0912e8c24f9e8eba85c,PennController,56,0,trial_3_double_cue_UP,NULL,Key,keypress1,PressedKey,E,1638531686196,CURY_2,cong-left.png,4,Wait success
1638532387,4482cad4ed88b0912e8c24f9e8eba85c,PennController,56,0,trial_3_double_cue_UP,NULL,PennController,59,_Trial_,End,1638531689101,CURY_2,cong-left.png,4,NULL
1638532387,4482cad4ed88b0912e8c24f9e8eba85c,PennController,61,0,trial_3_double_cue_DOWN,NULL,PennController,64,_Trial_,Start,1638531689104,CURY_2,neutral-right.png,3,NULL
1638532387,4482cad4ed88b0912e8c24f9e8eba85c,PennController,61,0,trial_3_double_cue_DOWN,NULL,PennController,64,_Header_,Start,1638531689104,CURY_2,neutral-right.png,3,NULL
1638532387,4482cad4ed88b0912e8c24f9e8eba85c,PennController,61,0,trial_3_double_cue_DOWN,NULL,PennController,64,_Header_,End,1638531689104,CURY_2,neutral-right.png,3,NULL
1638532387,4482cad4ed88b0912e8c24f9e8eba85c,PennController,61,0,trial_3_double_cue_DOWN,NULL,Canvas,center,Print,NA,1638531690614,CURY_2,neutral-right.png,3,NULL
1638532387,4482cad4ed88b0912e8c24f9e8eba85c,PennController,61,0,trial_3_double_cue_DOWN,NULL,Key,keypress1,PressedKey,I,1638531691412,CURY_2,neutral-right.png,3,Wait success
1638532387,4482cad4ed88b0912e8c24f9e8eba85c,PennController,61,0,trial_3_double_cue_DOWN,NULL,PennController,64,_Trial_,End,1638531694321,CURY_2,neutral-right.png,3,NULL
1638532387,4482cad4ed88b0912e8c24f9e8eba85c,PennController,71,0,trial_4_spatial_cue_DOWN,NULL,PennController,74,_Trial_,Start,1638531694323,CURY_2,cong-right.png,1,NULL
1638532387,4482cad4ed88b0912e8c24f9e8eba85c,PennController,71,0,trial_4_spatial_cue_DOWN,NULL,PennController,74,_Header_,Start,1638531694323,CURY_2,cong-right.png,1,NULL
1638532387,4482cad4ed88b0912e8c24f9e8eba85c,PennController,71,0,trial_4_spatial_cue_DOWN,NULL,PennController,74,_Header_,End,1638531694323,CURY_2,cong-right.png,1,NULL
1638532387,4482cad4ed88b0912e8c24f9e8eba85c,PennController,71,0,trial_4_spatial_cue_DOWN,NULL,Canvas,center,Print,NA,1638531695831,CURY_2,cong-right.png,1,NULL
1638532387,4482cad4ed88b0912e8c24f9e8eba85c,PennController,71,0,trial_4_spatial_cue_DOWN,NULL,Key,keypress1,PressedKey,I,1638531696614,CURY_2,cong-right.png,1,Wait success
1638532387,4482cad4ed88b0912e8c24f9e8eba85c,PennController,71,0,trial_4_spatial_cue_DOWN,NULL,PennController,74,_Trial_,End,1638531699524,CURY_2,cong-right.png,1,NULL
1638532387,4482cad4ed88b0912e8c24f9e8eba85c,PennController,45,0,trial_2_center_cue_UP,NULL,PennController,48,_Trial_,Start,1638531699527,CURY_2,incong-left.png,5,NULL
1638532387,4482cad4ed88b0912e8c24f9e8eba85c,PennController,45,0,trial_2_center_cue_UP,NULL,PennController,48,_Header_,Start,1638531699527,CURY_2,incong-left.png,5,NULL
1638532387,4482cad4ed88b0912e8c24f9e8eba85c,PennController,45,0,trial_2_center_cue_UP,NULL,PennController,48,_Header_,End,1638531699527,CURY_2,incong-left.png,5,NULL
1638532387,4482cad4ed88b0912e8c24f9e8eba85c,PennController,45,0,trial_2_center_cue_UP,NULL,Canvas,center,Print,NA,1638531701042,CURY_2,incong-left.png,5,NULL
1638532387,4482cad4ed88b0912e8c24f9e8eba85c,PennController,45,0,trial_2_center_cue_UP,NULL,Key,keypress1,PressedKey,E,1638531701951,CURY_2,incong-left.png,5,Wait success
1638532387,4482cad4ed88b0912e8c24f9e8eba85c,PennController,45,0,trial_2_center_cue_UP,NULL,PennController,48,_Trial_,End,1638531704860,CURY_2,incong-left.png,5,NULL
1638532387,4482cad4ed88b0912e8c24f9e8eba85c,PennController,36,0,trial_1_no_cue_DOWN,NULL,PennController,39,_Trial_,Start,1638531704862,CURY_2,incong-right.png,2,NULL
1638532387,4482cad4ed88b0912e8c24f9e8eba85c,PennController,36,0,trial_1_no_cue_DOWN,NULL,PennController,39,_Header_,Start,1638531704862,CURY_2,incong-right.png,2,NULL
1638532387,4482cad4ed88b0912e8c24f9e8eba85c,PennController,36,0,trial_1_no_cue_DOWN,NULL,PennController,39,_Header_,End,1638531704863,CURY_2,incong-right.png,2,NULL
1638532387,4482cad4ed88b0912e8c24f9e8eba85c,PennController,36,0,trial_1_no_cue_DOWN,NULL,Canvas,center,Print,NA,1638531706374,CURY_2,incong-right.png,2,NULL
1638532387,4482cad4ed88b0912e8c24f9e8eba85c,PennController,36,0,trial_1_no_cue_DOWN,NULL,Key,keypress1,PressedKey,I,1638531707819,CURY_2,incong-right.png,2,Wait success
1638532387,4482cad4ed88b0912e8c24f9e8eba85c,PennController,36,0,trial_1_no_cue_DOWN,NULL,PennController,39,_Trial_,End,1638531710726,CURY_2,incong-right.png,2,NULL
1638532387,4482cad4ed88b0912e8c24f9e8eba85c,PennController,67,0,trial_4_spatial_cue_UP,NULL,PennController,70,_Trial_,Start,1638531710729,CURY_2,neutral-right.png,3,NULL
1638532387,4482cad4ed88b0912e8c24f9e8eba85c,PennController,67,0,trial_4_spatial_cue_UP,NULL,PennController,70,_Header_,Start,1638531710729,CURY_2,neutral-right.png,3,NULL
1638532387,4482cad4ed88b0912e8c24f9e8eba85c,PennController,67,0,trial_4_spatial_cue_UP,NULL,PennController,70,_Header_,End,1638531710729,CURY_2,neutral-right.png,3,NULL
1638532387,4482cad4ed88b0912e8c24f9e8eba85c,PennController,67,0,trial_4_spatial_cue_UP,NULL,Canvas,center,Print,NA,1638531712241,CURY_2,neutral-right.png,3,NULL
1638532387,4482cad4ed88b0912e8c24f9e8eba85c,PennController,67,0,trial_4_spatial_cue_UP,NULL,Key,keypress1,PressedKey,I,1638531713114,CURY_2,neutral-right.png,3,Wait success
1638532387,4482cad4ed88b0912e8c24f9e8eba85c,PennController,67,0,trial_4_spatial_cue_UP,NULL,PennController,70,_Trial_,End,1638531716026,CURY_2,neutral-right.png,3,NULL
1638532387,4482cad4ed88b0912e8c24f9e8eba85c,PennController,51,0,trial_2_center_cue_DOWN,NULL,PennController,54,_Trial_,Start,1638531716028,CURY_2,incong-left.png,5,NULL
1638532387,4482cad4ed88b0912e8c24f9e8eba85c,PennController,51,0,trial_2_center_cue_DOWN,NULL,PennController,54,_Header_,Start,1638531716028,CURY_2,incong-left.png,5,NULL
1638532387,4482cad4ed88b0912e8c24f9e8eba85c,PennController,51,0,trial_2_center_cue_DOWN,NULL,PennController,54,_Header_,End,1638531716028,CURY_2,incong-left.png,5,NULL
1638532387,4482cad4ed88b0912e8c24f9e8eba85c,PennController,51,0,trial_2_center_cue_DOWN,NULL,Canvas,center,Print,NA,1638531717545,CURY_2,incong-left.png,5,NULL
1638532387,4482cad4ed88b0912e8c24f9e8eba85c,PennController,51,0,trial_2_center_cue_DOWN,NULL,Key,keypress1,PressedKey,E,1638531718506,CURY_2,incong-left.png,5,Wait success
1638532387,4482cad4ed88b0912e8c24f9e8eba85c,PennController,51,0,trial_2_center_cue_DOWN,NULL,PennController,54,_Trial_,End,1638531721412,CURY_2,incong-left.png,5,NULL
1638532387,4482cad4ed88b0912e8c24f9e8eba85c,PennController,30,0,trial_1_no_cue_UP,NULL,PennController,33,_Trial_,Start,1638531721415,CURY_2,incong-right.png,2,NULL
1638532387,4482cad4ed88b0912e8c24f9e8eba85c,PennController,30,0,trial_1_no_cue_UP,NULL,PennController,33,_Header_,Start,1638531721415,CURY_2,incong-right.png,2,NULL
1638532387,4482cad4ed88b0912e8c24f9e8eba85c,PennController,30,0,trial_1_no_cue_UP,NULL,PennController,33,_Header_,End,1638531721415,CURY_2,incong-right.png,2,NULL
1638532387,4482cad4ed88b0912e8c24f9e8eba85c,PennController,30,0,trial_1_no_cue_UP,NULL,Canvas,center,Print,NA,1638531722928,CURY_2,incong-right.png,2,NULL
1638532387,4482cad4ed88b0912e8c24f9e8eba85c,PennController,30,0,trial_1_no_cue_UP,NULL,Key,keypress1,PressedKey,I,1638531724011,CURY_2,incong-right.png,2,Wait success
1638532387,4482cad4ed88b0912e8c24f9e8eba85c,PennController,30,0,trial_1_no_cue_UP,NULL,PennController,33,_Trial_,End,1638531726924,CURY_2,incong-right.png,2,NULL
1638532387,4482cad4ed88b0912e8c24f9e8eba85c,PennController,54,0,trial_3_double_cue_UP,NULL,PennController,57,_Trial_,Start,1638531726926,CURY_2,incong-right.png,2,NULL
1638532387,4482cad4ed88b0912e8c24f9e8eba85c,PennController,54,0,trial_3_double_cue_UP,NULL,PennController,57,_Header_,Start,1638531726926,CURY_2,incong-right.png,2,NULL
1638532387,4482cad4ed88b0912e8c24f9e8eba85c,PennController,54,0,trial_3_double_cue_UP,NULL,PennController,57,_Header_,End,1638531726926,CURY_2,incong-right.png,2,NULL
1638532387,4482cad4ed88b0912e8c24f9e8eba85c,PennController,54,0,trial_3_double_cue_UP,NULL,Canvas,center,Print,NA,1638531728435,CURY_2,incong-right.png,2,NULL
1638532387,4482cad4ed88b0912e8c24f9e8eba85c,PennController,54,0,trial_3_double_cue_UP,NULL,Key,keypress1,PressedKey,I,1638531729362,CURY_2,incong-right.png,2,Wait success
1638532387,4482cad4ed88b0912e8c24f9e8eba85c,PennController,54,0,trial_3_double_cue_UP,NULL,PennController,57,_Trial_,End,1638531732268,CURY_2,incong-right.png,2,NULL
1638532387,4482cad4ed88b0912e8c24f9e8eba85c,PennController,64,0,trial_3_double_cue_DOWN,NULL,PennController,67,_Trial_,Start,1638531732270,CURY_2,neutral-left.png,6,NULL
1638532387,4482cad4ed88b0912e8c24f9e8eba85c,PennController,64,0,trial_3_double_cue_DOWN,NULL,PennController,67,_Header_,Start,1638531732270,CURY_2,neutral-left.png,6,NULL
1638532387,4482cad4ed88b0912e8c24f9e8eba85c,PennController,64,0,trial_3_double_cue_DOWN,NULL,PennController,67,_Header_,End,1638531732270,CURY_2,neutral-left.png,6,NULL
1638532387,4482cad4ed88b0912e8c24f9e8eba85c,PennController,64,0,trial_3_double_cue_DOWN,NULL,Canvas,center,Print,NA,1638531733781,CURY_2,neutral-left.png,6,NULL
1638532387,4482cad4ed88b0912e8c24f9e8eba85c,PennController,64,0,trial_3_double_cue_DOWN,NULL,Key,keypress1,PressedKey,E,1638531745227,CURY_2,neutral-left.png,6,Wait success
1638532387,4482cad4ed88b0912e8c24f9e8eba85c,PennController,64,0,trial_3_double_cue_DOWN,NULL,PennController,67,_Trial_,End,1638531748132,CURY_2,neutral-left.png,6,NULL
1638532387,4482cad4ed88b0912e8c24f9e8eba85c,PennController,72,0,trial_4_spatial_cue_DOWN,NULL,PennController,75,_Trial_,Start,1638531748134,CURY_2,incong-right.png,2,NULL
1638532387,4482cad4ed88b0912e8c24f9e8eba85c,PennController,72,0,trial_4_spatial_cue_DOWN,NULL,PennController,75,_Header_,Start,1638531748134,CURY_2,incong-right.png,2,NULL
1638532387,4482cad4ed88b0912e8c24f9e8eba85c,PennController,72,0,trial_4_spatial_cue_DOWN,NULL,PennController,75,_Header_,End,1638531748134,CURY_2,incong-right.png,2,NULL
1638532387,4482cad4ed88b0912e8c24f9e8eba85c,PennController,72,0,trial_4_spatial_cue_DOWN,NULL,Canvas,center,Print,NA,1638531749646,CURY_2,incong-right.png,2,NULL
1638532387,4482cad4ed88b0912e8c24f9e8eba85c,PennController,72,0,trial_4_spatial_cue_DOWN,NULL,Key,keypress1,PressedKey,I,1638531756930,CURY_2,incong-right.png,2,Wait success
1638532387,4482cad4ed88b0912e8c24f9e8eba85c,PennController,72,0,trial_4_spatial_cue_DOWN,NULL,PennController,75,_Trial_,End,1638531759838,CURY_2,incong-right.png,2,NULL
1638532387,4482cad4ed88b0912e8c24f9e8eba85c,PennController,41,0,trial_2_center_cue_UP,NULL,PennController,44,_Trial_,Start,1638531759840,CURY_2,cong-right.png,1,NULL
1638532387,4482cad4ed88b0912e8c24f9e8eba85c,PennController,41,0,trial_2_center_cue_UP,NULL,PennController,44,_Header_,Start,1638531759841,CURY_2,cong-right.png,1,NULL
1638532387,4482cad4ed88b0912e8c24f9e8eba85c,PennController,41,0,trial_2_center_cue_UP,NULL,PennController,44,_Header_,End,1638531759841,CURY_2,cong-right.png,1,NULL
1638532387,4482cad4ed88b0912e8c24f9e8eba85c,PennController,41,0,trial_2_center_cue_UP,NULL,Canvas,center,Print,NA,1638531761351,CURY_2,cong-right.png,1,NULL
1638532387,4482cad4ed88b0912e8c24f9e8eba85c,PennController,41,0,trial_2_center_cue_UP,NULL,Key,keypress1,PressedKey,I,1638531763468,CURY_2,cong-right.png,1,Wait success
1638532387,4482cad4ed88b0912e8c24f9e8eba85c,PennController,41,0,trial_2_center_cue_UP,NULL,PennController,44,_Trial_,End,1638531766378,CURY_2,cong-right.png,1,NULL
1638532387,4482cad4ed88b0912e8c24f9e8eba85c,PennController,35,0,trial_1_no_cue_DOWN,NULL,PennController,38,_Trial_,Start,1638531766381,CURY_2,cong-right.png,1,NULL
1638532387,4482cad4ed88b0912e8c24f9e8eba85c,PennController,35,0,trial_1_no_cue_DOWN,NULL,PennController,38,_Header_,Start,1638531766381,CURY_2,cong-right.png,1,NULL
1638532387,4482cad4ed88b0912e8c24f9e8eba85c,PennController,35,0,trial_1_no_cue_DOWN,NULL,PennController,38,_Header_,End,1638531766381,CURY_2,cong-right.png,1,NULL
1638532387,4482cad4ed88b0912e8c24f9e8eba85c,PennController,35,0,trial_1_no_cue_DOWN,NULL,Canvas,center,Print,NA,1638531767895,CURY_2,cong-right.png,1,NULL
1638532387,4482cad4ed88b0912e8c24f9e8eba85c,PennController,35,0,trial_1_no_cue_DOWN,NULL,Key,keypress1,PressedKey,I,1638531769504,CURY_2,cong-right.png,1,Wait success
1638532387,4482cad4ed88b0912e8c24f9e8eba85c,PennController,35,0,trial_1_no_cue_DOWN,NULL,PennController,38,_Trial_,End,1638531772412,CURY_2,cong-right.png,1,NULL
1638532387,4482cad4ed88b0912e8c24f9e8eba85c,PennController,70,0,trial_4_spatial_cue_UP,NULL,PennController,73,_Trial_,Start,1638531772415,CURY_2,neutral-left.png,6,NULL
1638532387,4482cad4ed88b0912e8c24f9e8eba85c,PennController,70,0,trial_4_spatial_cue_UP,NULL,PennController,73,_Header_,Start,1638531772415,CURY_2,neutral-left.png,6,NULL
1638532387,4482cad4ed88b0912e8c24f9e8eba85c,PennController,70,0,trial_4_spatial_cue_UP,NULL,PennController,73,_Header_,End,1638531772415,CURY_2,neutral-left.png,6,NULL
1638532387,4482cad4ed88b0912e8c24f9e8eba85c,PennController,70,0,trial_4_spatial_cue_UP,NULL,Canvas,center,Print,NA,1638531773936,CURY_2,neutral-left.png,6,NULL
1638532387,4482cad4ed88b0912e8c24f9e8eba85c,PennController,70,0,trial_4_spatial_cue_UP,NULL,Key,keypress1,PressedKey,E,1638531778122,CURY_2,neutral-left.png,6,Wait success
1638532387,4482cad4ed88b0912e8c24f9e8eba85c,PennController,70,0,trial_4_spatial_cue_UP,NULL,PennController,73,_Trial_,End,1638531781035,CURY_2,neutral-left.png,6,NULL
1638532387,4482cad4ed88b0912e8c24f9e8eba85c,PennController,49,0,trial_2_center_cue_DOWN,NULL,PennController,52,_Trial_,Start,1638531781038,CURY_2,neutral-right.png,3,NULL
1638532387,4482cad4ed88b0912e8c24f9e8eba85c,PennController,49,0,trial_2_center_cue_DOWN,NULL,PennController,52,_Header_,Start,1638531781038,CURY_2,neutral-right.png,3,NULL
1638532387,4482cad4ed88b0912e8c24f9e8eba85c,PennController,49,0,trial_2_center_cue_DOWN,NULL,PennController,52,_Header_,End,1638531781038,CURY_2,neutral-right.png,3,NULL
1638532387,4482cad4ed88b0912e8c24f9e8eba85c,PennController,49,0,trial_2_center_cue_DOWN,NULL,Canvas,center,Print,NA,1638531782556,CURY_2,neutral-right.png,3,NULL
1638532387,4482cad4ed88b0912e8c24f9e8eba85c,PennController,49,0,trial_2_center_cue_DOWN,NULL,Key,keypress1,PressedKey,I,1638531788366,CURY_2,neutral-right.png,3,Wait success
1638532387,4482cad4ed88b0912e8c24f9e8eba85c,PennController,49,0,trial_2_center_cue_DOWN,NULL,PennController,52,_Trial_,End,1638531791281,CURY_2,neutral-right.png,3,NULL
1638532387,4482cad4ed88b0912e8c24f9e8eba85c,PennController,29,0,trial_1_no_cue_UP,NULL,PennController,32,_Trial_,Start,1638531791284,CURY_2,cong-right.png,1,NULL
1638532387,4482cad4ed88b0912e8c24f9e8eba85c,PennController,29,0,trial_1_no_cue_UP,NULL,PennController,32,_Header_,Start,1638531791284,CURY_2,cong-right.png,1,NULL
1638532387,4482cad4ed88b0912e8c24f9e8eba85c,PennController,29,0,trial_1_no_cue_UP,NULL,PennController,32,_Header_,End,1638531791284,CURY_2,cong-right.png,1,NULL
1638532387,4482cad4ed88b0912e8c24f9e8eba85c,PennController,29,0,trial_1_no_cue_UP,NULL,Canvas,center,Print,NA,1638531792799,CURY_2,cong-right.png,1,NULL
1638532387,4482cad4ed88b0912e8c24f9e8eba85c,PennController,29,0,trial_1_no_cue_UP,NULL,Key,keypress1,PressedKey,I,1638531795439,CURY_2,cong-right.png,1,Wait success
1638532387,4482cad4ed88b0912e8c24f9e8eba85c,PennController,29,0,trial_1_no_cue_UP,NULL,PennController,32,_Trial_,End,1638531798346,CURY_2,cong-right.png,1,NULL
1638532387,4482cad4ed88b0912e8c24f9e8eba85c,PennController,53,0,trial_3_double_cue_UP,NULL,PennController,56,_Trial_,Start,1638531798347,CURY_2,cong-right.png,1,NULL
1638532387,4482cad4ed88b0912e8c24f9e8eba85c,PennController,53,0,trial_3_double_cue_UP,NULL,PennController,56,_Header_,Start,1638531798347,CURY_2,cong-right.png,1,NULL
1638532387,4482cad4ed88b0912e8c24f9e8eba85c,PennController,53,0,trial_3_double_cue_UP,NULL,PennController,56,_Header_,End,1638531798347,CURY_2,cong-right.png,1,NULL
1638532387,4482cad4ed88b0912e8c24f9e8eba85c,PennController,53,0,trial_3_double_cue_UP,NULL,Canvas,center,Print,NA,1638531799856,CURY_2,cong-right.png,1,NULL
1638532387,4482cad4ed88b0912e8c24f9e8eba85c,PennController,53,0,trial_3_double_cue_UP,NULL,Key,keypress1,PressedKey,I,1638531800764,CURY_2,cong-right.png,1,Wait success
1638532387,4482cad4ed88b0912e8c24f9e8eba85c,PennController,53,0,trial_3_double_cue_UP,NULL,PennController,56,_Trial_,End,1638531803672,CURY_2,cong-right.png,1,NULL
1638532387,4482cad4ed88b0912e8c24f9e8eba85c,PennController,62,0,trial_3_double_cue_DOWN,NULL,PennController,65,_Trial_,Start,1638531803674,CURY_2,cong-left.png,4,NULL
1638532387,4482cad4ed88b0912e8c24f9e8eba85c,PennController,62,0,trial_3_double_cue_DOWN,NULL,PennController,65,_Header_,Start,1638531803674,CURY_2,cong-left.png,4,NULL
1638532387,4482cad4ed88b0912e8c24f9e8eba85c,PennController,62,0,trial_3_double_cue_DOWN,NULL,PennController,65,_Header_,End,1638531803674,CURY_2,cong-left.png,4,NULL
1638532387,4482cad4ed88b0912e8c24f9e8eba85c,PennController,62,0,trial_3_double_cue_DOWN,NULL,Canvas,center,Print,NA,1638531805183,CURY_2,cong-left.png,4,NULL
1638532387,4482cad4ed88b0912e8c24f9e8eba85c,PennController,62,0,trial_3_double_cue_DOWN,NULL,Key,keypress1,PressedKey,E,1638531806524,CURY_2,cong-left.png,4,Wait success
1638532387,4482cad4ed88b0912e8c24f9e8eba85c,PennController,62,0,trial_3_double_cue_DOWN,NULL,PennController,65,_Trial_,End,1638531809433,CURY_2,cong-left.png,4,NULL
# 14. Comments.
1638532387,4482cad4ed88b0912e8c24f9e8eba85c,PennController,77,0,instructions_F,NULL,PennController,5,_Trial_,Start,1638531809435,CURY_2,NULL
1638532387,4482cad4ed88b0912e8c24f9e8eba85c,PennController,77,0,instructions_F,NULL,PennController,5,_Header_,Start,1638531809435,CURY_2,NULL
1638532387,4482cad4ed88b0912e8c24f9e8eba85c,PennController,77,0,instructions_F,NULL,PennController,5,_Header_,End,1638531809435,CURY_2,NULL
1638532387,4482cad4ed88b0912e8c24f9e8eba85c,PennController,77,0,instructions_F,NULL,PennController,5,_Trial_,End,1638531813465,CURY_2,NULL
# 14. imagens.
# 15. item.
# 16. Comments.
1638532387,4482cad4ed88b0912e8c24f9e8eba85c,PennController,36,0,trial_1_no_cue_DOWN,NULL,PennController,39,_Trial_,Start,1638531813466,CURY_2,incong-right.png,2,NULL
1638532387,4482cad4ed88b0912e8c24f9e8eba85c,PennController,36,0,trial_1_no_cue_DOWN,NULL,PennController,39,_Header_,Start,1638531813466,CURY_2,incong-right.png,2,NULL
1638532387,4482cad4ed88b0912e8c24f9e8eba85c,PennController,36,0,trial_1_no_cue_DOWN,NULL,PennController,39,_Header_,End,1638531813466,CURY_2,incong-right.png,2,NULL
1638532387,4482cad4ed88b0912e8c24f9e8eba85c,PennController,36,0,trial_1_no_cue_DOWN,NULL,Canvas,center,Print,NA,1638531814975,CURY_2,incong-right.png,2,NULL
1638532387,4482cad4ed88b0912e8c24f9e8eba85c,PennController,36,0,trial_1_no_cue_DOWN,NULL,Key,keypress1,PressedKey,I,1638531815523,CURY_2,incong-right.png,2,Wait success
1638532387,4482cad4ed88b0912e8c24f9e8eba85c,PennController,36,0,trial_1_no_cue_DOWN,NULL,PennController,39,_Trial_,End,1638531818432,CURY_2,incong-right.png,2,NULL
1638532387,4482cad4ed88b0912e8c24f9e8eba85c,PennController,31,0,trial_1_no_cue_UP,NULL,PennController,34,_Trial_,Start,1638531818434,CURY_2,neutral-right.png,3,NULL
1638532387,4482cad4ed88b0912e8c24f9e8eba85c,PennController,31,0,trial_1_no_cue_UP,NULL,PennController,34,_Header_,Start,1638531818434,CURY_2,neutral-right.png,3,NULL
1638532387,4482cad4ed88b0912e8c24f9e8eba85c,PennController,31,0,trial_1_no_cue_UP,NULL,PennController,34,_Header_,End,1638531818434,CURY_2,neutral-right.png,3,NULL
1638532387,4482cad4ed88b0912e8c24f9e8eba85c,PennController,31,0,trial_1_no_cue_UP,NULL,Canvas,center,Print,NA,1638531819947,CURY_2,neutral-right.png,3,NULL
1638532387,4482cad4ed88b0912e8c24f9e8eba85c,PennController,31,0,trial_1_no_cue_UP,NULL,Key,keypress1,PressedKey,I,1638531821513,CURY_2,neutral-right.png,3,Wait success
1638532387,4482cad4ed88b0912e8c24f9e8eba85c,PennController,31,0,trial_1_no_cue_UP,NULL,PennController,34,_Trial_,End,1638531824422,CURY_2,neutral-right.png,3,NULL
1638532387,4482cad4ed88b0912e8c24f9e8eba85c,PennController,61,0,trial_3_double_cue_DOWN,NULL,PennController,64,_Trial_,Start,1638531824423,CURY_2,neutral-right.png,3,NULL
1638532387,4482cad4ed88b0912e8c24f9e8eba85c,PennController,61,0,trial_3_double_cue_DOWN,NULL,PennController,64,_Header_,Start,1638531824423,CURY_2,neutral-right.png,3,NULL
1638532387,4482cad4ed88b0912e8c24f9e8eba85c,PennController,61,0,trial_3_double_cue_DOWN,NULL,PennController,64,_Header_,End,1638531824424,CURY_2,neutral-right.png,3,NULL
1638532387,4482cad4ed88b0912e8c24f9e8eba85c,PennController,61,0,trial_3_double_cue_DOWN,NULL,Canvas,center,Print,NA,1638531825934,CURY_2,neutral-right.png,3,NULL
1638532387,4482cad4ed88b0912e8c24f9e8eba85c,PennController,61,0,trial_3_double_cue_DOWN,NULL,Key,keypress1,PressedKey,I,1638531829034,CURY_2,neutral-right.png,3,Wait success
1638532387,4482cad4ed88b0912e8c24f9e8eba85c,PennController,61,0,trial_3_double_cue_DOWN,NULL,PennController,64,_Trial_,End,1638531831943,CURY_2,neutral-right.png,3,NULL
1638532387,4482cad4ed88b0912e8c24f9e8eba85c,PennController,50,0,trial_2_center_cue_DOWN,NULL,PennController,53,_Trial_,Start,1638531831946,CURY_2,cong-left.png,4,NULL
1638532387,4482cad4ed88b0912e8c24f9e8eba85c,PennController,50,0,trial_2_center_cue_DOWN,NULL,PennController,53,_Header_,Start,1638531831946,CURY_2,cong-left.png,4,NULL
1638532387,4482cad4ed88b0912e8c24f9e8eba85c,PennController,50,0,trial_2_center_cue_DOWN,NULL,PennController,53,_Header_,End,1638531831946,CURY_2,cong-left.png,4,NULL
1638532387,4482cad4ed88b0912e8c24f9e8eba85c,PennController,50,0,trial_2_center_cue_DOWN,NULL,Canvas,center,Print,NA,1638531833460,CURY_2,cong-left.png,4,NULL
1638532387,4482cad4ed88b0912e8c24f9e8eba85c,PennController,50,0,trial_2_center_cue_DOWN,NULL,Key,keypress1,PressedKey,I,1638531834318,CURY_2,cong-left.png,4,Wait success
1638532387,4482cad4ed88b0912e8c24f9e8eba85c,PennController,50,0,trial_2_center_cue_DOWN,NULL,PennController,53,_Trial_,End,1638531837227,CURY_2,cong-left.png,4,NULL
1638532387,4482cad4ed88b0912e8c24f9e8eba85c,PennController,69,0,trial_4_spatial_cue_UP,NULL,PennController,72,_Trial_,Start,1638531837230,CURY_2,incong-left.png,5,NULL
1638532387,4482cad4ed88b0912e8c24f9e8eba85c,PennController,69,0,trial_4_spatial_cue_UP,NULL,PennController,72,_Header_,Start,1638531837230,CURY_2,incong-left.png,5,NULL
1638532387,4482cad4ed88b0912e8c24f9e8eba85c,PennController,69,0,trial_4_spatial_cue_UP,NULL,PennController,72,_Header_,End,1638531837230,CURY_2,incong-left.png,5,NULL
1638532387,4482cad4ed88b0912e8c24f9e8eba85c,PennController,69,0,trial_4_spatial_cue_UP,NULL,Canvas,center,Print,NA,1638531838746,CURY_2,incong-left.png,5,NULL
1638532387,4482cad4ed88b0912e8c24f9e8eba85c,PennController,69,0,trial_4_spatial_cue_UP,NULL,Key,keypress1,PressedKey,I,1638531841985,CURY_2,incong-left.png,5,Wait success
1638532387,4482cad4ed88b0912e8c24f9e8eba85c,PennController,69,0,trial_4_spatial_cue_UP,NULL,PennController,72,_Trial_,End,1638531844895,CURY_2,incong-left.png,5,NULL
1638532387,4482cad4ed88b0912e8c24f9e8eba85c,PennController,56,0,trial_3_double_cue_UP,NULL,PennController,59,_Trial_,Start,1638531844898,CURY_2,cong-left.png,4,NULL
1638532387,4482cad4ed88b0912e8c24f9e8eba85c,PennController,56,0,trial_3_double_cue_UP,NULL,PennController,59,_Header_,Start,1638531844898,CURY_2,cong-left.png,4,NULL
1638532387,4482cad4ed88b0912e8c24f9e8eba85c,PennController,56,0,trial_3_double_cue_UP,NULL,PennController,59,_Header_,End,1638531844898,CURY_2,cong-left.png,4,NULL
1638532387,4482cad4ed88b0912e8c24f9e8eba85c,PennController,56,0,trial_3_double_cue_UP,NULL,Canvas,center,Print,NA,1638531846416,CURY_2,cong-left.png,4,NULL
1638532387,4482cad4ed88b0912e8c24f9e8eba85c,PennController,56,0,trial_3_double_cue_UP,NULL,Key,keypress1,PressedKey,E,1638531848545,CURY_2,cong-left.png,4,Wait success
1638532387,4482cad4ed88b0912e8c24f9e8eba85c,PennController,56,0,trial_3_double_cue_UP,NULL,PennController,59,_Trial_,End,1638531851455,CURY_2,cong-left.png,4,NULL
1638532387,4482cad4ed88b0912e8c24f9e8eba85c,PennController,75,0,trial_4_spatial_cue_DOWN,NULL,PennController,78,_Trial_,Start,1638531851457,CURY_2,incong-left.png,5,NULL
1638532387,4482cad4ed88b0912e8c24f9e8eba85c,PennController,75,0,trial_4_spatial_cue_DOWN,NULL,PennController,78,_Header_,Start,1638531851457,CURY_2,incong-left.png,5,NULL
1638532387,4482cad4ed88b0912e8c24f9e8eba85c,PennController,75,0,trial_4_spatial_cue_DOWN,NULL,PennController,78,_Header_,End,1638531851457,CURY_2,incong-left.png,5,NULL
1638532387,4482cad4ed88b0912e8c24f9e8eba85c,PennController,75,0,trial_4_spatial_cue_DOWN,NULL,Canvas,center,Print,NA,1638531852966,CURY_2,incong-left.png,5,NULL
1638532387,4482cad4ed88b0912e8c24f9e8eba85c,PennController,75,0,trial_4_spatial_cue_DOWN,NULL,Key,keypress1,PressedKey,E,1638531853774,CURY_2,incong-left.png,5,Wait success
1638532387,4482cad4ed88b0912e8c24f9e8eba85c,PennController,75,0,trial_4_spatial_cue_DOWN,NULL,PennController,78,_Trial_,End,1638531856680,CURY_2,incong-left.png,5,NULL
1638532387,4482cad4ed88b0912e8c24f9e8eba85c,PennController,46,0,trial_2_center_cue_UP,NULL,PennController,49,_Trial_,Start,1638531856682,CURY_2,neutral-left.png,6,NULL
1638532387,4482cad4ed88b0912e8c24f9e8eba85c,PennController,46,0,trial_2_center_cue_UP,NULL,PennController,49,_Header_,Start,1638531856682,CURY_2,neutral-left.png,6,NULL
1638532387,4482cad4ed88b0912e8c24f9e8eba85c,PennController,46,0,trial_2_center_cue_UP,NULL,PennController,49,_Header_,End,1638531856682,CURY_2,neutral-left.png,6,NULL
1638532387,4482cad4ed88b0912e8c24f9e8eba85c,PennController,46,0,trial_2_center_cue_UP,NULL,Canvas,center,Print,NA,1638531858193,CURY_2,neutral-left.png,6,NULL
1638532387,4482cad4ed88b0912e8c24f9e8eba85c,PennController,46,0,trial_2_center_cue_UP,NULL,Key,keypress1,PressedKey,E,1638531859009,CURY_2,neutral-left.png,6,Wait success
1638532387,4482cad4ed88b0912e8c24f9e8eba85c,PennController,46,0,trial_2_center_cue_UP,NULL,PennController,49,_Trial_,End,1638531861917,CURY_2,neutral-left.png,6,NULL
1638532387,4482cad4ed88b0912e8c24f9e8eba85c,PennController,35,0,trial_1_no_cue_DOWN,NULL,PennController,38,_Trial_,Start,1638531861919,CURY_2,cong-right.png,1,NULL
1638532387,4482cad4ed88b0912e8c24f9e8eba85c,PennController,35,0,trial_1_no_cue_DOWN,NULL,PennController,38,_Header_,Start,1638531861919,CURY_2,cong-right.png,1,NULL
1638532387,4482cad4ed88b0912e8c24f9e8eba85c,PennController,35,0,trial_1_no_cue_DOWN,NULL,PennController,38,_Header_,End,1638531861919,CURY_2,cong-right.png,1,NULL
1638532387,4482cad4ed88b0912e8c24f9e8eba85c,PennController,35,0,trial_1_no_cue_DOWN,NULL,Canvas,center,Print,NA,1638531863431,CURY_2,cong-right.png,1,NULL
1638532387,4482cad4ed88b0912e8c24f9e8eba85c,PennController,35,0,trial_1_no_cue_DOWN,NULL,Key,keypress1,PressedKey,I,1638531866006,CURY_2,cong-right.png,1,Wait success
1638532387,4482cad4ed88b0912e8c24f9e8eba85c,PennController,35,0,trial_1_no_cue_DOWN,NULL,PennController,38,_Trial_,End,1638531868909,CURY_2,cong-right.png,1,NULL
1638532387,4482cad4ed88b0912e8c24f9e8eba85c,PennController,34,0,trial_1_no_cue_UP,NULL,PennController,37,_Trial_,Start,1638531868911,CURY_2,neutral-left.png,6,NULL
1638532387,4482cad4ed88b0912e8c24f9e8eba85c,PennController,34,0,trial_1_no_cue_UP,NULL,PennController,37,_Header_,Start,1638531868911,CURY_2,neutral-left.png,6,NULL
1638532387,4482cad4ed88b0912e8c24f9e8eba85c,PennController,34,0,trial_1_no_cue_UP,NULL,PennController,37,_Header_,End,1638531868912,CURY_2,neutral-left.png,6,NULL
1638532387,4482cad4ed88b0912e8c24f9e8eba85c,PennController,34,0,trial_1_no_cue_UP,NULL,Canvas,center,Print,NA,1638531870423,CURY_2,neutral-left.png,6,NULL
1638532387,4482cad4ed88b0912e8c24f9e8eba85c,PennController,34,0,trial_1_no_cue_UP,NULL,Key,keypress1,PressedKey,E,1638531873016,CURY_2,neutral-left.png,6,Wait success
1638532387,4482cad4ed88b0912e8c24f9e8eba85c,PennController,34,0,trial_1_no_cue_UP,NULL,PennController,37,_Trial_,End,1638531875923,CURY_2,neutral-left.png,6,NULL
1638532387,4482cad4ed88b0912e8c24f9e8eba85c,PennController,62,0,trial_3_double_cue_DOWN,NULL,PennController,65,_Trial_,Start,1638531875926,CURY_2,cong-left.png,4,NULL
1638532387,4482cad4ed88b0912e8c24f9e8eba85c,PennController,62,0,trial_3_double_cue_DOWN,NULL,PennController,65,_Header_,Start,1638531875926,CURY_2,cong-left.png,4,NULL
1638532387,4482cad4ed88b0912e8c24f9e8eba85c,PennController,62,0,trial_3_double_cue_DOWN,NULL,PennController,65,_Header_,End,1638531875927,CURY_2,cong-left.png,4,NULL
1638532387,4482cad4ed88b0912e8c24f9e8eba85c,PennController,62,0,trial_3_double_cue_DOWN,NULL,Canvas,center,Print,NA,1638531877438,CURY_2,cong-left.png,4,NULL
1638532387,4482cad4ed88b0912e8c24f9e8eba85c,PennController,62,0,trial_3_double_cue_DOWN,NULL,Key,keypress1,PressedKey,E,1638531879121,CURY_2,cong-left.png,4,Wait success
1638532387,4482cad4ed88b0912e8c24f9e8eba85c,PennController,62,0,trial_3_double_cue_DOWN,NULL,PennController,65,_Trial_,End,1638531882028,CURY_2,cong-left.png,4,NULL
1638532387,4482cad4ed88b0912e8c24f9e8eba85c,PennController,51,0,trial_2_center_cue_DOWN,NULL,PennController,54,_Trial_,Start,1638531882030,CURY_2,incong-left.png,5,NULL
1638532387,4482cad4ed88b0912e8c24f9e8eba85c,PennController,51,0,trial_2_center_cue_DOWN,NULL,PennController,54,_Header_,Start,1638531882030,CURY_2,incong-left.png,5,NULL
1638532387,4482cad4ed88b0912e8c24f9e8eba85c,PennController,51,0,trial_2_center_cue_DOWN,NULL,PennController,54,_Header_,End,1638531882030,CURY_2,incong-left.png,5,NULL
1638532387,4482cad4ed88b0912e8c24f9e8eba85c,PennController,51,0,trial_2_center_cue_DOWN,NULL,Canvas,center,Print,NA,1638531883545,CURY_2,incong-left.png,5,NULL
1638532387,4482cad4ed88b0912e8c24f9e8eba85c,PennController,51,0,trial_2_center_cue_DOWN,NULL,Key,keypress1,PressedKey,E,1638531884791,CURY_2,incong-left.png,5,Wait success
1638532387,4482cad4ed88b0912e8c24f9e8eba85c,PennController,51,0,trial_2_center_cue_DOWN,NULL,PennController,54,_Trial_,End,1638531887702,CURY_2,incong-left.png,5,NULL
1638532387,4482cad4ed88b0912e8c24f9e8eba85c,PennController,70,0,trial_4_spatial_cue_UP,NULL,PennController,73,_Trial_,Start,1638531887704,CURY_2,neutral-left.png,6,NULL
1638532387,4482cad4ed88b0912e8c24f9e8eba85c,PennController,70,0,trial_4_spatial_cue_UP,NULL,PennController,73,_Header_,Start,1638531887704,CURY_2,neutral-left.png,6,NULL
1638532387,4482cad4ed88b0912e8c24f9e8eba85c,PennController,70,0,trial_4_spatial_cue_UP,NULL,PennController,73,_Header_,End,1638531887705,CURY_2,neutral-left.png,6,NULL
1638532387,4482cad4ed88b0912e8c24f9e8eba85c,PennController,70,0,trial_4_spatial_cue_UP,NULL,Canvas,center,Print,NA,1638531889219,CURY_2,neutral-left.png,6,NULL
1638532387,4482cad4ed88b0912e8c24f9e8eba85c,PennController,70,0,trial_4_spatial_cue_UP,NULL,Key,keypress1,PressedKey,E,1638531891282,CURY_2,neutral-left.png,6,Wait success
1638532387,4482cad4ed88b0912e8c24f9e8eba85c,PennController,70,0,trial_4_spatial_cue_UP,NULL,PennController,73,_Trial_,End,1638531894192,CURY_2,neutral-left.png,6,NULL
1638532387,4482cad4ed88b0912e8c24f9e8eba85c,PennController,58,0,trial_3_double_cue_UP,NULL,PennController,61,_Trial_,Start,1638531894194,CURY_2,neutral-left.png,6,NULL
1638532387,4482cad4ed88b0912e8c24f9e8eba85c,PennController,58,0,trial_3_double_cue_UP,NULL,PennController,61,_Header_,Start,1638531894194,CURY_2,neutral-left.png,6,NULL
1638532387,4482cad4ed88b0912e8c24f9e8eba85c,PennController,58,0,trial_3_double_cue_UP,NULL,PennController,61,_Header_,End,1638531894195,CURY_2,neutral-left.png,6,NULL
1638532387,4482cad4ed88b0912e8c24f9e8eba85c,PennController,58,0,trial_3_double_cue_UP,NULL,Canvas,center,Print,NA,1638531895710,CURY_2,neutral-left.png,6,NULL
1638532387,4482cad4ed88b0912e8c24f9e8eba85c,PennController,58,0,trial_3_double_cue_UP,NULL,Key,keypress1,PressedKey,E,1638531898370,CURY_2,neutral-left.png,6,Wait success
1638532387,4482cad4ed88b0912e8c24f9e8eba85c,PennController,58,0,trial_3_double_cue_UP,NULL,PennController,61,_Trial_,End,1638531901284,CURY_2,neutral-left.png,6,NULL
1638532387,4482cad4ed88b0912e8c24f9e8eba85c,PennController,72,0,trial_4_spatial_cue_DOWN,NULL,PennController,75,_Trial_,Start,1638531901287,CURY_2,incong-right.png,2,NULL
1638532387,4482cad4ed88b0912e8c24f9e8eba85c,PennController,72,0,trial_4_spatial_cue_DOWN,NULL,PennController,75,_Header_,Start,1638531901287,CURY_2,incong-right.png,2,NULL
1638532387,4482cad4ed88b0912e8c24f9e8eba85c,PennController,72,0,trial_4_spatial_cue_DOWN,NULL,PennController,75,_Header_,End,1638531901287,CURY_2,incong-right.png,2,NULL
1638532387,4482cad4ed88b0912e8c24f9e8eba85c,PennController,72,0,trial_4_spatial_cue_DOWN,NULL,Canvas,center,Print,NA,1638531902803,CURY_2,incong-right.png,2,NULL
1638532387,4482cad4ed88b0912e8c24f9e8eba85c,PennController,72,0,trial_4_spatial_cue_DOWN,NULL,Key,keypress1,PressedKey,E,1638531905556,CURY_2,incong-right.png,2,Wait success
1638532387,4482cad4ed88b0912e8c24f9e8eba85c,PennController,72,0,trial_4_spatial_cue_DOWN,NULL,PennController,75,_Trial_,End,1638531908466,CURY_2,incong-right.png,2,NULL
1638532387,4482cad4ed88b0912e8c24f9e8eba85c,PennController,41,0,trial_2_center_cue_UP,NULL,PennController,44,_Trial_,Start,1638531908469,CURY_2,cong-right.png,1,NULL
1638532387,4482cad4ed88b0912e8c24f9e8eba85c,PennController,41,0,trial_2_center_cue_UP,NULL,PennController,44,_Header_,Start,1638531908469,CURY_2,cong-right.png,1,NULL
1638532387,4482cad4ed88b0912e8c24f9e8eba85c,PennController,41,0,trial_2_center_cue_UP,NULL,PennController,44,_Header_,End,1638531908469,CURY_2,cong-right.png,1,NULL
1638532387,4482cad4ed88b0912e8c24f9e8eba85c,PennController,41,0,trial_2_center_cue_UP,NULL,Canvas,center,Print,NA,1638531909985,CURY_2,cong-right.png,1,NULL
1638532387,4482cad4ed88b0912e8c24f9e8eba85c,PennController,41,0,trial_2_center_cue_UP,NULL,Key,keypress1,PressedKey,E,1638531913058,CURY_2,cong-right.png,1,Wait success
1638532387,4482cad4ed88b0912e8c24f9e8eba85c,PennController,41,0,trial_2_center_cue_UP,NULL,PennController,44,_Trial_,End,1638531915963,CURY_2,cong-right.png,1,NULL
1638532387,4482cad4ed88b0912e8c24f9e8eba85c,PennController,37,0,trial_1_no_cue_DOWN,NULL,PennController,40,_Trial_,Start,1638531915965,CURY_2,neutral-right.png,3,NULL
1638532387,4482cad4ed88b0912e8c24f9e8eba85c,PennController,37,0,trial_1_no_cue_DOWN,NULL,PennController,40,_Header_,Start,1638531915965,CURY_2,neutral-right.png,3,NULL
1638532387,4482cad4ed88b0912e8c24f9e8eba85c,PennController,37,0,trial_1_no_cue_DOWN,NULL,PennController,40,_Header_,End,1638531915965,CURY_2,neutral-right.png,3,NULL
1638532387,4482cad4ed88b0912e8c24f9e8eba85c,PennController,37,0,trial_1_no_cue_DOWN,NULL,Canvas,center,Print,NA,1638531917474,CURY_2,neutral-right.png,3,NULL
1638532387,4482cad4ed88b0912e8c24f9e8eba85c,PennController,37,0,trial_1_no_cue_DOWN,NULL,Key,keypress1,PressedKey,I,1638531919315,CURY_2,neutral-right.png,3,Wait success
1638532387,4482cad4ed88b0912e8c24f9e8eba85c,PennController,37,0,trial_1_no_cue_DOWN,NULL,PennController,40,_Trial_,End,1638531922223,CURY_2,neutral-right.png,3,NULL
1638532387,4482cad4ed88b0912e8c24f9e8eba85c,PennController,33,0,trial_1_no_cue_UP,NULL,PennController,36,_Trial_,Start,1638531922225,CURY_2,incong-left.png,5,NULL
1638532387,4482cad4ed88b0912e8c24f9e8eba85c,PennController,33,0,trial_1_no_cue_UP,NULL,PennController,36,_Header_,Start,1638531922225,CURY_2,incong-left.png,5,NULL
1638532387,4482cad4ed88b0912e8c24f9e8eba85c,PennController,33,0,trial_1_no_cue_UP,NULL,PennController,36,_Header_,End,1638531922225,CURY_2,incong-left.png,5,NULL
1638532387,4482cad4ed88b0912e8c24f9e8eba85c,PennController,33,0,trial_1_no_cue_UP,NULL,Canvas,center,Print,NA,1638531923741,CURY_2,incong-left.png,5,NULL
1638532387,4482cad4ed88b0912e8c24f9e8eba85c,PennController,33,0,trial_1_no_cue_UP,NULL,Key,keypress1,PressedKey,E,1638531928085,CURY_2,incong-left.png,5,Wait success
1638532387,4482cad4ed88b0912e8c24f9e8eba85c,PennController,33,0,trial_1_no_cue_UP,NULL,PennController,36,_Trial_,End,1638531930995,CURY_2,incong-left.png,5,NULL
1638532387,4482cad4ed88b0912e8c24f9e8eba85c,PennController,59,0,trial_3_double_cue_DOWN,NULL,PennController,62,_Trial_,Start,1638531930997,CURY_2,cong-right.png,1,NULL
1638532387,4482cad4ed88b0912e8c24f9e8eba85c,PennController,59,0,trial_3_double_cue_DOWN,NULL,PennController,62,_Header_,Start,1638531930997,CURY_2,cong-right.png,1,NULL
1638532387,4482cad4ed88b0912e8c24f9e8eba85c,PennController,59,0,trial_3_double_cue_DOWN,NULL,PennController,62,_Header_,End,1638531930997,CURY_2,cong-right.png,1,NULL
1638532387,4482cad4ed88b0912e8c24f9e8eba85c,PennController,59,0,trial_3_double_cue_DOWN,NULL,Canvas,center,Print,NA,1638531932509,CURY_2,cong-right.png,1,NULL
1638532387,4482cad4ed88b0912e8c24f9e8eba85c,PennController,59,0,trial_3_double_cue_DOWN,NULL,Key,keypress1,PressedKey,I,1638531934705,CURY_2,cong-right.png,1,Wait success
1638532387,4482cad4ed88b0912e8c24f9e8eba85c,PennController,59,0,trial_3_double_cue_DOWN,NULL,PennController,62,_Trial_,End,1638531937616,CURY_2,cong-right.png,1,NULL
1638532387,4482cad4ed88b0912e8c24f9e8eba85c,PennController,48,0,trial_2_center_cue_DOWN,NULL,PennController,51,_Trial_,Start,1638531937618,CURY_2,incong-right.png,2,NULL
1638532387,4482cad4ed88b0912e8c24f9e8eba85c,PennController,48,0,trial_2_center_cue_DOWN,NULL,PennController,51,_Header_,Start,1638531937618,CURY_2,incong-right.png,2,NULL
1638532387,4482cad4ed88b0912e8c24f9e8eba85c,PennController,48,0,trial_2_center_cue_DOWN,NULL,PennController,51,_Header_,End,1638531937619,CURY_2,incong-right.png,2,NULL
1638532387,4482cad4ed88b0912e8c24f9e8eba85c,PennController,48,0,trial_2_center_cue_DOWN,NULL,Canvas,center,Print,NA,1638531939138,CURY_2,incong-right.png,2,NULL
1638532387,4482cad4ed88b0912e8c24f9e8eba85c,PennController,48,0,trial_2_center_cue_DOWN,NULL,Key,keypress1,PressedKey,I,1638531940765,CURY_2,incong-right.png,2,Wait success
1638532387,4482cad4ed88b0912e8c24f9e8eba85c,PennController,48,0,trial_2_center_cue_DOWN,NULL,PennController,51,_Trial_,End,1638531943674,CURY_2,incong-right.png,2,NULL
1638532387,4482cad4ed88b0912e8c24f9e8eba85c,PennController,67,0,trial_4_spatial_cue_UP,NULL,PennController,70,_Trial_,Start,1638531943677,CURY_2,neutral-right.png,3,NULL
1638532387,4482cad4ed88b0912e8c24f9e8eba85c,PennController,67,0,trial_4_spatial_cue_UP,NULL,PennController,70,_Header_,Start,1638531943677,CURY_2,neutral-right.png,3,NULL
1638532387,4482cad4ed88b0912e8c24f9e8eba85c,PennController,67,0,trial_4_spatial_cue_UP,NULL,PennController,70,_Header_,End,1638531943677,CURY_2,neutral-right.png,3,NULL
1638532387,4482cad4ed88b0912e8c24f9e8eba85c,PennController,67,0,trial_4_spatial_cue_UP,NULL,Canvas,center,Print,NA,1638531945188,CURY_2,neutral-right.png,3,NULL
1638532387,4482cad4ed88b0912e8c24f9e8eba85c,PennController,67,0,trial_4_spatial_cue_UP,NULL,Key,keypress1,PressedKey,I,1638531948504,CURY_2,neutral-right.png,3,Wait success
1638532387,4482cad4ed88b0912e8c24f9e8eba85c,PennController,67,0,trial_4_spatial_cue_UP,NULL,PennController,70,_Trial_,End,1638531951413,CURY_2,neutral-right.png,3,NULL
1638532387,4482cad4ed88b0912e8c24f9e8eba85c,PennController,53,0,trial_3_double_cue_UP,NULL,PennController,56,_Trial_,Start,1638531951416,CURY_2,cong-right.png,1,NULL
1638532387,4482cad4ed88b0912e8c24f9e8eba85c,PennController,53,0,trial_3_double_cue_UP,NULL,PennController,56,_Header_,Start,1638531951416,CURY_2,cong-right.png,1,NULL
1638532387,4482cad4ed88b0912e8c24f9e8eba85c,PennController,53,0,trial_3_double_cue_UP,NULL,PennController,56,_Header_,End,1638531951416,CURY_2,cong-right.png,1,NULL
1638532387,4482cad4ed88b0912e8c24f9e8eba85c,PennController,53,0,trial_3_double_cue_UP,NULL,Canvas,center,Print,NA,1638531952931,CURY_2,cong-right.png,1,NULL
1638532387,4482cad4ed88b0912e8c24f9e8eba85c,PennController,53,0,trial_3_double_cue_UP,NULL,Key,keypress1,PressedKey,I,1638531955848,CURY_2,cong-right.png,1,Wait success
1638532387,4482cad4ed88b0912e8c24f9e8eba85c,PennController,53,0,trial_3_double_cue_UP,NULL,PennController,56,_Trial_,End,1638531958757,CURY_2,cong-right.png,1,NULL
1638532387,4482cad4ed88b0912e8c24f9e8eba85c,PennController,76,0,trial_4_spatial_cue_DOWN,NULL,PennController,79,_Trial_,Start,1638531958760,CURY_2,neutral-left.png,6,NULL
1638532387,4482cad4ed88b0912e8c24f9e8eba85c,PennController,76,0,trial_4_spatial_cue_DOWN,NULL,PennController,79,_Header_,Start,1638531958760,CURY_2,neutral-left.png,6,NULL
1638532387,4482cad4ed88b0912e8c24f9e8eba85c,PennController,76,0,trial_4_spatial_cue_DOWN,NULL,PennController,79,_Header_,End,1638531958760,CURY_2,neutral-left.png,6,NULL
1638532387,4482cad4ed88b0912e8c24f9e8eba85c,PennController,76,0,trial_4_spatial_cue_DOWN,NULL,Canvas,center,Print,NA,1638531960272,CURY_2,neutral-left.png,6,NULL
1638532387,4482cad4ed88b0912e8c24f9e8eba85c,PennController,76,0,trial_4_spatial_cue_DOWN,NULL,Key,keypress1,PressedKey,E,1638531961067,CURY_2,neutral-left.png,6,Wait success
1638532387,4482cad4ed88b0912e8c24f9e8eba85c,PennController,76,0,trial_4_spatial_cue_DOWN,NULL,PennController,79,_Trial_,End,1638531963983,CURY_2,neutral-left.png,6,NULL
1638532387,4482cad4ed88b0912e8c24f9e8eba85c,PennController,45,0,trial_2_center_cue_UP,NULL,PennController,48,_Trial_,Start,1638531963986,CURY_2,incong-left.png,5,NULL
1638532387,4482cad4ed88b0912e8c24f9e8eba85c,PennController,45,0,trial_2_center_cue_UP,NULL,PennController,48,_Header_,Start,1638531963986,CURY_2,incong-left.png,5,NULL
1638532387,4482cad4ed88b0912e8c24f9e8eba85c,PennController,45,0,trial_2_center_cue_UP,NULL,PennController,48,_Header_,End,1638531963986,CURY_2,incong-left.png,5,NULL
1638532387,4482cad4ed88b0912e8c24f9e8eba85c,PennController,45,0,trial_2_center_cue_UP,NULL,Canvas,center,Print,NA,1638531965506,CURY_2,incong-left.png,5,NULL
1638532387,4482cad4ed88b0912e8c24f9e8eba85c,PennController,45,0,trial_2_center_cue_UP,NULL,Key,keypress1,PressedKey,E,1638531966996,CURY_2,incong-left.png,5,Wait success
1638532387,4482cad4ed88b0912e8c24f9e8eba85c,PennController,45,0,trial_2_center_cue_UP,NULL,PennController,48,_Trial_,End,1638531969911,CURY_2,incong-left.png,5,NULL
1638532387,4482cad4ed88b0912e8c24f9e8eba85c,PennController,39,0,trial_1_no_cue_DOWN,NULL,PennController,42,_Trial_,Start,1638531969915,CURY_2,incong-left.png,5,NULL
1638532387,4482cad4ed88b0912e8c24f9e8eba85c,PennController,39,0,trial_1_no_cue_DOWN,NULL,PennController,42,_Header_,Start,1638531969915,CURY_2,incong-left.png,5,NULL
1638532387,4482cad4ed88b0912e8c24f9e8eba85c,PennController,39,0,trial_1_no_cue_DOWN,NULL,PennController,42,_Header_,End,1638531969915,CURY_2,incong-left.png,5,NULL
1638532387,4482cad4ed88b0912e8c24f9e8eba85c,PennController,39,0,trial_1_no_cue_DOWN,NULL,Canvas,center,Print,NA,1638531971430,CURY_2,incong-left.png,5,NULL
1638532387,4482cad4ed88b0912e8c24f9e8eba85c,PennController,39,0,trial_1_no_cue_DOWN,NULL,Key,keypress1,PressedKey,E,1638531972283,CURY_2,incong-left.png,5,Wait success
1638532387,4482cad4ed88b0912e8c24f9e8eba85c,PennController,39,0,trial_1_no_cue_DOWN,NULL,PennController,42,_Trial_,End,1638531975188,CURY_2,incong-left.png,5,NULL
1638532387,4482cad4ed88b0912e8c24f9e8eba85c,PennController,32,0,trial_1_no_cue_UP,NULL,PennController,35,_Trial_,Start,1638531975190,CURY_2,cong-left.png,4,NULL
1638532387,4482cad4ed88b0912e8c24f9e8eba85c,PennController,32,0,trial_1_no_cue_UP,NULL,PennController,35,_Header_,Start,1638531975190,CURY_2,cong-left.png,4,NULL
1638532387,4482cad4ed88b0912e8c24f9e8eba85c,PennController,32,0,trial_1_no_cue_UP,NULL,PennController,35,_Header_,End,1638531975190,CURY_2,cong-left.png,4,NULL
1638532387,4482cad4ed88b0912e8c24f9e8eba85c,PennController,32,0,trial_1_no_cue_UP,NULL,Canvas,center,Print,NA,1638531976704,CURY_2,cong-left.png,4,NULL
1638532387,4482cad4ed88b0912e8c24f9e8eba85c,PennController,32,0,trial_1_no_cue_UP,NULL,Key,keypress1,PressedKey,E,1638531977810,CURY_2,cong-left.png,4,Wait success
1638532387,4482cad4ed88b0912e8c24f9e8eba85c,PennController,32,0,trial_1_no_cue_UP,NULL,PennController,35,_Trial_,End,1638531980718,CURY_2,cong-left.png,4,NULL
1638532387,4482cad4ed88b0912e8c24f9e8eba85c,PennController,60,0,trial_3_double_cue_DOWN,NULL,PennController,63,_Trial_,Start,1638531980720,CURY_2,incong-right.png,2,NULL
1638532387,4482cad4ed88b0912e8c24f9e8eba85c,PennController,60,0,trial_3_double_cue_DOWN,NULL,PennController,63,_Header_,Start,1638531980720,CURY_2,incong-right.png,2,NULL
1638532387,4482cad4ed88b0912e8c24f9e8eba85c,PennController,60,0,trial_3_double_cue_DOWN,NULL,PennController,63,_Header_,End,1638531980720,CURY_2,incong-right.png,2,NULL
1638532387,4482cad4ed88b0912e8c24f9e8eba85c,PennController,60,0,trial_3_double_cue_DOWN,NULL,Canvas,center,Print,NA,1638531982229,CURY_2,incong-right.png,2,NULL
1638532387,4482cad4ed88b0912e8c24f9e8eba85c,PennController,60,0,trial_3_double_cue_DOWN,NULL,Key,keypress1,PressedKey,I,1638531983636,CURY_2,incong-right.png,2,Wait success
1638532387,4482cad4ed88b0912e8c24f9e8eba85c,PennController,60,0,trial_3_double_cue_DOWN,NULL,PennController,63,_Trial_,End,1638531986546,CURY_2,incong-right.png,2,NULL
1638532387,4482cad4ed88b0912e8c24f9e8eba85c,PennController,52,0,trial_2_center_cue_DOWN,NULL,PennController,55,_Trial_,Start,1638531986548,CURY_2,neutral-left.png,6,NULL
1638532387,4482cad4ed88b0912e8c24f9e8eba85c,PennController,52,0,trial_2_center_cue_DOWN,NULL,PennController,55,_Header_,Start,1638531986548,CURY_2,neutral-left.png,6,NULL
1638532387,4482cad4ed88b0912e8c24f9e8eba85c,PennController,52,0,trial_2_center_cue_DOWN,NULL,PennController,55,_Header_,End,1638531986548,CURY_2,neutral-left.png,6,NULL
1638532387,4482cad4ed88b0912e8c24f9e8eba85c,PennController,52,0,trial_2_center_cue_DOWN,NULL,Canvas,center,Print,NA,1638531988058,CURY_2,neutral-left.png,6,NULL
1638532387,4482cad4ed88b0912e8c24f9e8eba85c,PennController,52,0,trial_2_center_cue_DOWN,NULL,Key,keypress1,PressedKey,E,1638531989359,CURY_2,neutral-left.png,6,Wait success
1638532387,4482cad4ed88b0912e8c24f9e8eba85c,PennController,52,0,trial_2_center_cue_DOWN,NULL,PennController,55,_Trial_,End,1638531992262,CURY_2,neutral-left.png,6,NULL
1638532387,4482cad4ed88b0912e8c24f9e8eba85c,PennController,68,0,trial_4_spatial_cue_UP,NULL,PennController,71,_Trial_,Start,1638531992265,CURY_2,cong-left.png,4,NULL
1638532387,4482cad4ed88b0912e8c24f9e8eba85c,PennController,68,0,trial_4_spatial_cue_UP,NULL,PennController,71,_Header_,Start,1638531992265,CURY_2,cong-left.png,4,NULL
1638532387,4482cad4ed88b0912e8c24f9e8eba85c,PennController,68,0,trial_4_spatial_cue_UP,NULL,PennController,71,_Header_,End,1638531992265,CURY_2,cong-left.png,4,NULL
1638532387,4482cad4ed88b0912e8c24f9e8eba85c,PennController,68,0,trial_4_spatial_cue_UP,NULL,Canvas,center,Print,NA,1638531993777,CURY_2,cong-left.png,4,NULL
1638532387,4482cad4ed88b0912e8c24f9e8eba85c,PennController,68,0,trial_4_spatial_cue_UP,NULL,Key,keypress1,PressedKey,E,1638531994629,CURY_2,cong-left.png,4,Wait success
1638532387,4482cad4ed88b0912e8c24f9e8eba85c,PennController,68,0,trial_4_spatial_cue_UP,NULL,PennController,71,_Trial_,End,1638531997537,CURY_2,cong-left.png,4,NULL
1638532387,4482cad4ed88b0912e8c24f9e8eba85c,PennController,55,0,trial_3_double_cue_UP,NULL,PennController,58,_Trial_,Start,1638531997539,CURY_2,neutral-right.png,3,NULL
1638532387,4482cad4ed88b0912e8c24f9e8eba85c,PennController,55,0,trial_3_double_cue_UP,NULL,PennController,58,_Header_,Start,1638531997539,CURY_2,neutral-right.png,3,NULL
1638532387,4482cad4ed88b0912e8c24f9e8eba85c,PennController,55,0,trial_3_double_cue_UP,NULL,PennController,58,_Header_,End,1638531997539,CURY_2,neutral-right.png,3,NULL
1638532387,4482cad4ed88b0912e8c24f9e8eba85c,PennController,55,0,trial_3_double_cue_UP,NULL,Canvas,center,Print,NA,1638531999051,CURY_2,neutral-right.png,3,NULL
1638532387,4482cad4ed88b0912e8c24f9e8eba85c,PennController,55,0,trial_3_double_cue_UP,NULL,Key,keypress1,PressedKey,I,1638531999933,CURY_2,neutral-right.png,3,Wait success
1638532387,4482cad4ed88b0912e8c24f9e8eba85c,PennController,55,0,trial_3_double_cue_UP,NULL,PennController,58,_Trial_,End,1638532002843,CURY_2,neutral-right.png,3,NULL
1638532387,4482cad4ed88b0912e8c24f9e8eba85c,PennController,71,0,trial_4_spatial_cue_DOWN,NULL,PennController,74,_Trial_,Start,1638532002846,CURY_2,cong-right.png,1,NULL
1638532387,4482cad4ed88b0912e8c24f9e8eba85c,PennController,71,0,trial_4_spatial_cue_DOWN,NULL,PennController,74,_Header_,Start,1638532002846,CURY_2,cong-right.png,1,NULL
1638532387,4482cad4ed88b0912e8c24f9e8eba85c,PennController,71,0,trial_4_spatial_cue_DOWN,NULL,PennController,74,_Header_,End,1638532002846,CURY_2,cong-right.png,1,NULL
1638532387,4482cad4ed88b0912e8c24f9e8eba85c,PennController,71,0,trial_4_spatial_cue_DOWN,NULL,Canvas,center,Print,NA,1638532004359,CURY_2,cong-right.png,1,NULL
1638532387,4482cad4ed88b0912e8c24f9e8eba85c,PennController,71,0,trial_4_spatial_cue_DOWN,NULL,Key,keypress1,PressedKey,I,1638532005232,CURY_2,cong-right.png,1,Wait success
1638532387,4482cad4ed88b0912e8c24f9e8eba85c,PennController,71,0,trial_4_spatial_cue_DOWN,NULL,PennController,74,_Trial_,End,1638532008142,CURY_2,cong-right.png,1,NULL
1638532387,4482cad4ed88b0912e8c24f9e8eba85c,PennController,43,0,trial_2_center_cue_UP,NULL,PennController,46,_Trial_,Start,1638532008145,CURY_2,neutral-right.png,3,NULL
1638532387,4482cad4ed88b0912e8c24f9e8eba85c,PennController,43,0,trial_2_center_cue_UP,NULL,PennController,46,_Header_,Start,1638532008145,CURY_2,neutral-right.png,3,NULL
1638532387,4482cad4ed88b0912e8c24f9e8eba85c,PennController,43,0,trial_2_center_cue_UP,NULL,PennController,46,_Header_,End,1638532008145,CURY_2,neutral-right.png,3,NULL
1638532387,4482cad4ed88b0912e8c24f9e8eba85c,PennController,43,0,trial_2_center_cue_UP,NULL,Canvas,center,Print,NA,1638532009661,CURY_2,neutral-right.png,3,NULL
1638532387,4482cad4ed88b0912e8c24f9e8eba85c,PennController,43,0,trial_2_center_cue_UP,NULL,Key,keypress1,PressedKey,I,1638532010583,CURY_2,neutral-right.png,3,Wait success
1638532387,4482cad4ed88b0912e8c24f9e8eba85c,PennController,43,0,trial_2_center_cue_UP,NULL,PennController,46,_Trial_,End,1638532013495,CURY_2,neutral-right.png,3,NULL
1638532387,4482cad4ed88b0912e8c24f9e8eba85c,PennController,38,0,trial_1_no_cue_DOWN,NULL,PennController,41,_Trial_,Start,1638532013498,CURY_2,cong-left.png,4,NULL
1638532387,4482cad4ed88b0912e8c24f9e8eba85c,PennController,38,0,trial_1_no_cue_DOWN,NULL,PennController,41,_Header_,Start,1638532013498,CURY_2,cong-left.png,4,NULL
1638532387,4482cad4ed88b0912e8c24f9e8eba85c,PennController,38,0,trial_1_no_cue_DOWN,NULL,PennController,41,_Header_,End,1638532013498,CURY_2,cong-left.png,4,NULL
1638532387,4482cad4ed88b0912e8c24f9e8eba85c,PennController,38,0,trial_1_no_cue_DOWN,NULL,Canvas,center,Print,NA,1638532015012,CURY_2,cong-left.png,4,NULL
1638532387,4482cad4ed88b0912e8c24f9e8eba85c,PennController,38,0,trial_1_no_cue_DOWN,NULL,Key,keypress1,PressedKey,E,1638532016529,CURY_2,cong-left.png,4,Wait success
1638532387,4482cad4ed88b0912e8c24f9e8eba85c,PennController,38,0,trial_1_no_cue_DOWN,NULL,PennController,41,_Trial_,End,1638532019440,CURY_2,cong-left.png,4,NULL
1638532387,4482cad4ed88b0912e8c24f9e8eba85c,PennController,30,0,trial_1_no_cue_UP,NULL,PennController,33,_Trial_,Start,1638532019443,CURY_2,incong-right.png,2,NULL
1638532387,4482cad4ed88b0912e8c24f9e8eba85c,PennController,30,0,trial_1_no_cue_UP,NULL,PennController,33,_Header_,Start,1638532019443,CURY_2,incong-right.png,2,NULL
1638532387,4482cad4ed88b0912e8c24f9e8eba85c,PennController,30,0,trial_1_no_cue_UP,NULL,PennController,33,_Header_,End,1638532019443,CURY_2,incong-right.png,2,NULL
1638532387,4482cad4ed88b0912e8c24f9e8eba85c,PennController,30,0,trial_1_no_cue_UP,NULL,Canvas,center,Print,NA,1638532020959,CURY_2,incong-right.png,2,NULL
1638532387,4482cad4ed88b0912e8c24f9e8eba85c,PennController,30,0,trial_1_no_cue_UP,NULL,Key,keypress1,PressedKey,I,1638532021838,CURY_2,incong-right.png,2,Wait success
